{"datasetJSONCreationDateTime":"2024-12-18T15:34:24","datasetJSONVersion":"1.1.0","fileOID":"CDISCPILOT01.adlbh","dbLastModifiedDateTime":"2012-10-15T22:56:19","originator":"CDISC Data Exchange Standards Team","sourceSystem":{"name":"SAS on X64_10PRO","version":"9.0401M7"},"studyOID":"CDISCPILOT01","metaDataVersionOID":"CDISC.ADaM.2.1","metaDataRef":"define.xml","itemGroupOID":"ADLBH","records":49932,"name":"ADLBH","label":"Analysis Dataset Lab Hematology","columns":[{"itemOID":"ADLBH.STUDYID","name":"STUDYID","label":"Study Identifier","dataType":"string","length":12},{"itemOID":"ADLBH.SUBJID","name":"SUBJID","label":"Subject Identifier for the Study","dataType":"string","length":4},{"itemOID":"ADLBH.USUBJID","name":"USUBJID","label":"Unique Subject Identifier","dataType":"string","length":11,"keySequence":1},{"itemOID":"ADLBH.TRTP","name":"TRTP","label":"Planned Treatment","dataType":"string","length":20},{"itemOID":"ADLBH.TRTPN","name":"TRTPN","label":"Planned Treatment (N)","dataType":"integer"},{"itemOID":"ADLBH.TRTA","name":"TRTA","label":"Actual Treatment","dataType":"string","length":20},{"itemOID":"ADLBH.TRTAN","name":"TRTAN","label":"Actual Treatment (N)","dataType":"integer"},{"itemOID":"ADLBH.TRTSDT","name":"TRTSDT","label":"Date of First Exposure to Treatment","dataType":"date","targetDataType":"integer","displayFormat":"DATE9."},{"itemOID":"ADLBH.TRTEDT","name":"TRTEDT","label":"Date of Last Exposure to Treatment","dataType":"date","targetDataType":"integer","displayFormat":"DATE9."},{"itemOID":"ADLBH.AGE","name":"AGE","label":"Age","dataType":"integer"},{"itemOID":"ADLBH.AGEGR1","name":"AGEGR1","label":"Pooled Age Group 1","dataType":"string","length":5},{"itemOID":"ADLBH.AGEGR1N","name":"AGEGR1N","label":"Pooled Age Group 1 (N)","dataType":"integer"},{"itemOID":"ADLBH.RACE","name":"RACE","label":"Race","dataType":"string","length":32},{"itemOID":"ADLBH.RACEN","name":"RACEN","label":"Race (N)","dataType":"integer"},{"itemOID":"ADLBH.SEX","name":"SEX","label":"Sex","dataType":"string","length":1},{"itemOID":"ADLBH.COMP24FL","name":"COMP24FL","label":"Completers of Week 24 Population Flag","dataType":"string","length":1},{"itemOID":"ADLBH.DSRAEFL","name":"DSRAEFL","label":"Discontinued due to AE?","dataType":"string","length":1},{"itemOID":"ADLBH.SAFFL","name":"SAFFL","label":"Safety Population Flag","dataType":"string","length":1},{"itemOID":"ADLBH.AVISIT","name":"AVISIT","label":"Analysis Visit","dataType":"string","length":16,"keySequence":3},{"itemOID":"ADLBH.AVISITN","name":"AVISITN","label":"Analysis Visit (N)","dataType":"integer"},{"itemOID":"ADLBH.ADY","name":"ADY","label":"Analysis Relative Day","dataType":"integer"},{"itemOID":"ADLBH.ADT","name":"ADT","label":"Analysis Date","dataType":"date","targetDataType":"integer","displayFormat":"DATE9."},{"itemOID":"ADLBH.VISIT","name":"VISIT","label":"Visit Name","dataType":"string","length":19},{"itemOID":"ADLBH.VISITNUM","name":"VISITNUM","label":"Visit Number","dataType":"decimal"},{"itemOID":"ADLBH.PARAM","name":"PARAM","label":"Parameter","dataType":"string","length":100},{"itemOID":"ADLBH.PARAMCD","name":"PARAMCD","label":"Parameter Code","dataType":"string","length":8,"keySequence":2},{"itemOID":"ADLBH.PARAMN","name":"PARAMN","label":"Parameter (N)","dataType":"integer"},{"itemOID":"ADLBH.PARCAT1","name":"PARCAT1","label":"Parameter Category 1","dataType":"string","length":5},{"itemOID":"ADLBH.AVAL","name":"AVAL","label":"Analysis Value","dataType":"float"},{"itemOID":"ADLBH.BASE","name":"BASE","label":"Baseline Value","dataType":"float"},{"itemOID":"ADLBH.CHG","name":"CHG","label":"Change from Baseline","dataType":"float"},{"itemOID":"ADLBH.A1LO","name":"A1LO","label":"Analysis Range 1 Lower Limit","dataType":"float"},{"itemOID":"ADLBH.A1HI","name":"A1HI","label":"Analysis Range 1 Upper Limit","dataType":"float"},{"itemOID":"ADLBH.R2A1LO","name":"R2A1LO","label":"Ratio to Analysis Range 1 Lower Limit","dataType":"float"},{"itemOID":"ADLBH.R2A1HI","name":"R2A1HI","label":"Ratio to Analysis Range 1 Upper Limit","dataType":"float"},{"itemOID":"ADLBH.BR2A1LO","name":"BR2A1LO","label":"Base Ratio to Analysis Range 1 Lower Lim","dataType":"float"},{"itemOID":"ADLBH.BR2A1HI","name":"BR2A1HI","label":"Base Ratio to Analysis Range 1 Upper Lim","dataType":"float"},{"itemOID":"ADLBH.ANL01FL","name":"ANL01FL","label":"Analysis Record Flag 1","dataType":"string","length":1},{"itemOID":"ADLBH.ALBTRVAL","name":"ALBTRVAL","label":"Amount Threshold Range","dataType":"float"},{"itemOID":"ADLBH.ANRIND","name":"ANRIND","label":"Analysis Reference Range Indicator","dataType":"string","length":1},{"itemOID":"ADLBH.BNRIND","name":"BNRIND","label":"Baseline Reference Range Indicator","dataType":"string","length":1},{"itemOID":"ADLBH.ABLFL","name":"ABLFL","label":"Baseline Record Flag","dataType":"string","length":1},{"itemOID":"ADLBH.AENTMTFL","name":"AENTMTFL","label":"Last value in treatment visit","dataType":"string","length":1},{"itemOID":"ADLBH.LBSEQ","name":"LBSEQ","label":"Sequence Number","dataType":"integer","keySequence":4},{"itemOID":"ADLBH.LBNRIND","name":"LBNRIND","label":"Reference Range Indicator","dataType":"string","length":8},{"itemOID":"ADLBH.LBSTRESN","name":"LBSTRESN","label":"Numeric Result/Finding in Standard Units","dataType":"float"}],"rows":[["CDISCPILOT01","1015","01-701-1015","Placebo",0,"Placebo",0,"2014-01-02","2014-07-02",63,"<65",1,"WHITE",1,"F","Y","","Y","        Baseline",0,-7,"2013-12-26","SCREENING 1",1,"Hemoglobin (mmol/L)","HGB",1,"HEM",8.87458,8.87458,null,7.14,9.81,1.24293837535,0.904646279307,1.24293837535,0.904646279307,"",5.84042,"N","N","Y","",19,"NORMAL",8.87458],["CDISCPILOT01","1015","01-701-1015","Placebo",0,"Placebo",0,"2014-01-02","2014-07-02",63,"<65",1,"WHITE",1,"F","Y","","Y","        Baseline",0,-7,"2013-12-26","SCREENING 1",1,"Hematocrit","HCT",2,"HEM",0.42,0.42,null,0.34,0.48,1.23529411765,0.875,1.23529411765,0.875,"",0.3,"N","N","Y","",18,"NORMAL",0.42],["CDISCPILOT01","1015","01-701-1015","Placebo",0,"Placebo",0,"2014-01-02","2014-07-02",63,"<65",1,"WHITE",1,"F","Y","","Y","        Baseline",0,-7,"2013-12-26","SCREENING 1",1,"Ery. Mean Corpuscular Volume (fL)","MCV",3,"HEM",80,80,null,80,100,1,0.8,1,0.8,"",70,"N","N","Y","",25,"NORMAL",80],["CDISCPILOT01","1015","01-701-1015","Placebo",0,"Placebo",0,"2014-01-02","2014-07-02",63,"<65",1,"WHITE",1,"F","Y","","Y","        Baseline",0,-7,"2013-12-26","SCREENING 1",1,"Ery. Mean Corpuscular Hemoglobin (fmol(Fe))","MCH",4,"HEM",1.67562,1.67562,null,1.6,2.1,1.0472625,0.797914285714,1.0472625,0.797914285714,"",1.47438,"N","N","Y","",23,"NORMAL",1.67562],["CDISCPILOT01","1015","01-701-1015","Placebo",0,"Placebo",0,"2014-01-02","2014-07-02",63,"<65",1,"WHITE",1,"F","Y","","Y","        Baseline",0,-7,"2013-12-26","SCREENING 1",1,"Ery. Mean Corpuscular HGB Concentration (mmol/L)","MCHC",5,"HEM",21.1004,21.1004,null,19,24,1.11054736842,0.879183333333,1.11054736842,0.879183333333,"",14.8996,"N","N","Y","",24,"NORMAL",21.1004],["CDISCPILOT01","1015","01-701-1015","Placebo",0,"Placebo",0,"2014-01-02","2014-07-02",63,"<65",1,"WHITE",1,"F","Y","","Y","        Baseline",0,-7,"2013-12-26","SCREENING 1",1,"Leukocytes (GI/L)","WBC",6,"HEM",5.78,5.78,null,3.8,10.7,1.52105263158,0.540186915888,1.52105263158,0.540186915888,"",10.27,"N","N","Y","",38,"NORMAL",5.78],["CDISCPILOT01","1015","01-701-1015","Placebo",0,"Placebo",0,"2014-01-02","2014-07-02",63,"<65",1,"WHITE",1,"F","Y","","Y","        Baseline",0,-7,"2013-12-26","SCREENING 1",1,"Lymphocytes (GI/L)","LYM",7,"HEM",2.11,2.11,null,0.8,3,2.6375,0.703333333333,2.6375,0.703333333333,"",2.39,"N","N","Y","",22,"NORMAL",2.11],["CDISCPILOT01","1015","01-701-1015","Placebo",0,"Placebo",0,"2014-01-02","2014-07-02",63,"<65",1,"WHITE",1,"F","Y","","Y","        Baseline",0,-7,"2013-12-26","SCREENING 1",1,"Monocytes (GI/L)","MONO",8,"HEM",0.22,0.22,null,0.12,0.92,1.83333333333,0.239130434783,1.83333333333,0.239130434783,"",1.16,"N","N","Y","",26,"NORMAL",0.22],["CDISCPILOT01","1015","01-701-1015","Placebo",0,"Placebo",0,"2014-01-02","2014-07-02",63,"<65",1,"WHITE",1,"F","Y","","Y","        Baseline",0,-7,"2013-12-26","SCREENING 1",1,"Eosinophils (GI/L)","EOS",9,"HEM",0.13,0.13,null,null,0.57,null,0.228070175439,null,0.228070175439,"",0.725,"N","N","Y","",15,"NORMAL",0.13],["CDISCPILOT01","1015","01-701-1015","Placebo",0,"Placebo",0,"2014-01-02","2014-07-02",63,"<65",1,"WHITE",1,"F","Y","","Y","        Baseline",0,-7,"2013-12-26","SCREENING 1",1,"Basophils (GI/L)","BASO",10,"HEM",0.05,0.05,null,null,0.2,null,0.25,null,0.25,"",0.25,"N","N","Y","",6,"NORMAL",0.05],["CDISCPILOT01","1015","01-701-1015","Placebo",0,"Placebo",0,"2014-01-02","2014-07-02",63,"<65",1,"WHITE",1,"F","Y","","Y","        Baseline",0,-7,"2013-12-26","SCREENING 1",1,"Platelet (GI/L)","PLAT",11,"HEM",266,266,null,130,394,2.04615384615,0.675126903553,2.04615384615,0.675126903553,"",325,"N","N","Y","",30,"NORMAL",266],["CDISCPILOT01","1015","01-701-1015","Placebo",0,"Placebo",0,"2014-01-02","2014-07-02",63,"<65",1,"WHITE",1,"F","Y","","Y","        Baseline",0,-7,"2013-12-26","SCREENING 1",1,"Erythrocytes (TI/L)","RBC",12,"HEM",5.3,5.3,null,3.9,5.5,1.35897435897,0.963636363636,1.35897435897,0.963636363636,"",3.35,"N","N","Y","",32,"NORMAL",5.3],["CDISCPILOT01","1015","01-701-1015","Placebo",0,"Placebo",0,"2014-01-02","2014-07-02",63,"<65",1,"WHITE",1,"F","Y","","Y","        Baseline",0,-7,"2013-12-26","SCREENING 1",1,"Anisocytes","ANISO",13,"HEM",1,1,null,null,null,null,null,null,null,"",null,"H","H","Y","",4,"ABNORMAL",1],["CDISCPILOT01","1015","01-701-1015","Placebo",0,"Placebo",0,"2014-01-02","2014-07-02",63,"<65",1,"WHITE",1,"F","Y","","Y","        Baseline",0,-7,"2013-12-26","SCREENING 1",1,"Hemoglobin (mmol/L) change from previous visit, relative to normal range","_HGB",101,"HEM",null,null,null,null,null,null,null,null,null,"",5.84042,"","","","",19,"NORMAL",8.87458],["CDISCPILOT01","1015","01-701-1015","Placebo",0,"Placebo",0,"2014-01-02","2014-07-02",63,"<65",1,"WHITE",1,"F","Y","","Y","        Baseline",0,-7,"2013-12-26","SCREENING 1",1,"Hematocrit change from previous visit, relative to normal range","_HCT",102,"HEM",null,null,null,null,null,null,null,null,null,"",0.3,"","","","",18,"NORMAL",0.42],["CDISCPILOT01","1015","01-701-1015","Placebo",0,"Placebo",0,"2014-01-02","2014-07-02",63,"<65",1,"WHITE",1,"F","Y","","Y","        Baseline",0,-7,"2013-12-26","SCREENING 1",1,"Ery. Mean Corpuscular Volume (fL) change from previous visit, relative to normal range","_MCV",103,"HEM",null,null,null,null,null,null,null,null,null,"",70,"","","","",25,"NORMAL",80],["CDISCPILOT01","1015","01-701-1015","Placebo",0,"Placebo",0,"2014-01-02","2014-07-02",63,"<65",1,"WHITE",1,"F","Y","","Y","        Baseline",0,-7,"2013-12-26","SCREENING 1",1,"Ery. Mean Corpuscular Hemoglobin (fmol(Fe)) change from previous visit, relative to normal range","_MCH",104,"HEM",null,null,null,null,null,null,null,null,null,"",1.47438,"","","","",23,"NORMAL",1.67562],["CDISCPILOT01","1015","01-701-1015","Placebo",0,"Placebo",0,"2014-01-02","2014-07-02",63,"<65",1,"WHITE",1,"F","Y","","Y","        Baseline",0,-7,"2013-12-26","SCREENING 1",1,"Ery. Mean Corpuscular HGB Concentration (mmol/L) change from previous visit, relative to normal rang","_MCHC",105,"HEM",null,null,null,null,null,null,null,null,null,"",14.8996,"","","","",24,"NORMAL",21.1004],["CDISCPILOT01","1015","01-701-1015","Placebo",0,"Placebo",0,"2014-01-02","2014-07-02",63,"<65",1,"WHITE",1,"F","Y","","Y","        Baseline",0,-7,"2013-12-26","SCREENING 1",1,"Leukocytes (GI/L) change from previous visit, relative to normal range","_WBC",106,"HEM",null,null,null,null,null,null,null,null,null,"",10.27,"","","","",38,"NORMAL",5.78],["CDISCPILOT01","1015","01-701-1015","Placebo",0,"Placebo",0,"2014-01-02","2014-07-02",63,"<65",1,"WHITE",1,"F","Y","","Y","        Baseline",0,-7,"2013-12-26","SCREENING 1",1,"Lymphocytes (GI/L) change from previous visit, relative to normal range","_LYM",107,"HEM",null,null,null,null,null,null,null,null,null,"",2.39,"","","","",22,"NORMAL",2.11],["CDISCPILOT01","1015","01-701-1015","Placebo",0,"Placebo",0,"2014-01-02","2014-07-02",63,"<65",1,"WHITE",1,"F","Y","","Y","        Baseline",0,-7,"2013-12-26","SCREENING 1",1,"Monocytes (GI/L) change from previous visit, relative to normal range","_MONO",108,"HEM",null,null,null,null,null,null,null,null,null,"",1.16,"","","","",26,"NORMAL",0.22],["CDISCPILOT01","1015","01-701-1015","Placebo",0,"Placebo",0,"2014-01-02","2014-07-02",63,"<65",1,"WHITE",1,"F","Y","","Y","        Baseline",0,-7,"2013-12-26","SCREENING 1",1,"Eosinophils (GI/L) change from previous visit, relative to normal range","_EOS",109,"HEM",null,null,null,null,null,null,null,null,null,"",0.725,"","","","",15,"NORMAL",0.13],["CDISCPILOT01","1015","01-701-1015","Placebo",0,"Placebo",0,"2014-01-02","2014-07-02",63,"<65",1,"WHITE",1,"F","Y","","Y","        Baseline",0,-7,"2013-12-26","SCREENING 1",1,"Basophils (GI/L) change from previous visit, relative to normal range","_BASO",110,"HEM",null,null,null,null,null,null,null,null,null,"",0.25,"","","","",6,"NORMAL",0.05],["CDISCPILOT01","1015","01-701-1015","Placebo",0,"Placebo",0,"2014-01-02","2014-07-02",63,"<65",1,"WHITE",1,"F","Y","","Y","        Baseline",0,-7,"2013-12-26","SCREENING 1",1,"Platelet (GI/L) change from previous visit, relative to normal range","_PLAT",111,"HEM",null,null,null,null,null,null,null,null,null,"",325,"","","","",30,"NORMAL",266],["CDISCPILOT01","1015","01-701-1015","Placebo",0,"Placebo",0,"2014-01-02","2014-07-02",63,"<65",1,"WHITE",1,"F","Y","","Y","        Baseline",0,-7,"2013-12-26","SCREENING 1",1,"Erythrocytes (TI/L) change from previous visit, relative to normal range","_RBC",112,"HEM",null,null,null,null,null,null,null,null,null,"",3.35,"","","","",32,"NORMAL",5.3],["CDISCPILOT01","1015","01-701-1015","Placebo",0,"Placebo",0,"2014-01-02","2014-07-02",63,"<65",1,"WHITE",1,"F","Y","","Y","        Baseline",0,-7,"2013-12-26","SCREENING 1",1,"Anisocytes change from previous visit, relative to normal range","_ANISO",113,"HEM",null,null,null,null,null,null,null,null,null,"",null,"","","","",4,"ABNORMAL",1],["CDISCPILOT01","1015","01-701-1015","Placebo",0,"Placebo",0,"2014-01-02","2014-07-02",63,"<65",1,"WHITE",1,"F","Y","","Y","          Week 2",2,15,"2014-01-16","WEEK 2",4,"Hemoglobin (mmol/L)","HGB",1,"HEM",8.87458,8.87458,0,7.14,9.81,1.24293837535,0.904646279307,1.24293837535,0.904646279307,"",5.84042,"N","N","","",56,"NORMAL",8.87458],["CDISCPILOT01","1015","01-701-1015","Placebo",0,"Placebo",0,"2014-01-02","2014-07-02",63,"<65",1,"WHITE",1,"F","Y","","Y","          Week 2",2,15,"2014-01-16","WEEK 2",4,"Hematocrit","HCT",2,"HEM",0.43,0.42,0.01,0.34,0.48,1.26470588235,0.895833333333,1.23529411765,0.875,"",0.29,"N","N","","",55,"NORMAL",0.43],["CDISCPILOT01","1015","01-701-1015","Placebo",0,"Placebo",0,"2014-01-02","2014-07-02",63,"<65",1,"WHITE",1,"F","Y","","Y","          Week 2",2,15,"2014-01-16","WEEK 2",4,"Ery. Mean Corpuscular Volume (fL)","MCV",3,"HEM",81,80,1,80,100,1.0125,0.81,1,0.8,"",69,"N","N","","",62,"NORMAL",81],["CDISCPILOT01","1015","01-701-1015","Placebo",0,"Placebo",0,"2014-01-02","2014-07-02",63,"<65",1,"WHITE",1,"F","Y","","Y","          Week 2",2,15,"2014-01-16","WEEK 2",4,"Ery. Mean Corpuscular Hemoglobin (fmol(Fe))","MCH",4,"HEM",1.67562,1.67562,0,1.6,2.1,1.0472625,0.797914285714,1.0472625,0.797914285714,"Y",1.47438,"N","N","","",60,"NORMAL",1.67562],["CDISCPILOT01","1015","01-701-1015","Placebo",0,"Placebo",0,"2014-01-02","2014-07-02",63,"<65",1,"WHITE",1,"F","Y","","Y","          Week 2",2,15,"2014-01-16","WEEK 2",4,"Ery. Mean Corpuscular HGB Concentration (mmol/L)","MCHC",5,"HEM",20.4798,21.1004,-0.6206,19,24,1.07788421053,0.853325,1.11054736842,0.879183333333,"",15.5202,"N","N","","",61,"NORMAL",20.4798],["CDISCPILOT01","1015","01-701-1015","Placebo",0,"Placebo",0,"2014-01-02","2014-07-02",63,"<65",1,"WHITE",1,"F","Y","","Y","          Week 2",2,15,"2014-01-16","WEEK 2",4,"Leukocytes (GI/L)","WBC",6,"HEM",5.33,5.78,-0.45,3.8,10.7,1.40263157895,0.498130841121,1.52105263158,0.540186915888,"",10.72,"N","N","","",73,"NORMAL",5.33],["CDISCPILOT01","1015","01-701-1015","Placebo",0,"Placebo",0,"2014-01-02","2014-07-02",63,"<65",1,"WHITE",1,"F","Y","","Y","          Week 2",2,15,"2014-01-16","WEEK 2",4,"Lymphocytes (GI/L)","LYM",7,"HEM",1.98,2.11,-0.13,0.8,3,2.475,0.66,2.6375,0.703333333333,"",2.52,"N","N","","",59,"NORMAL",1.98],["CDISCPILOT01","1015","01-701-1015","Placebo",0,"Placebo",0,"2014-01-02","2014-07-02",63,"<65",1,"WHITE",1,"F","Y","","Y","          Week 2",2,15,"2014-01-16","WEEK 2",4,"Monocytes (GI/L)","MONO",8,"HEM",0.26,0.22,0.04,0.12,0.92,2.16666666667,0.282608695652,1.83333333333,0.239130434783,"",1.12,"N","N","","",63,"NORMAL",0.26],["CDISCPILOT01","1015","01-701-1015","Placebo",0,"Placebo",0,"2014-01-02","2014-07-02",63,"<65",1,"WHITE",1,"F","Y","","Y","          Week 2",2,15,"2014-01-16","WEEK 2",4,"Eosinophils (GI/L)","EOS",9,"HEM",0.08,0.13,-0.05,null,0.57,null,0.140350877193,null,0.228070175439,"",0.775,"N","N","","",52,"NORMAL",0.08],["CDISCPILOT01","1015","01-701-1015","Placebo",0,"Placebo",0,"2014-01-02","2014-07-02",63,"<65",1,"WHITE",1,"F","Y","","Y","          Week 2",2,15,"2014-01-16","WEEK 2",4,"Basophils (GI/L)","BASO",10,"HEM",0.03,0.05,-0.02,null,0.2,null,0.15,null,0.25,"",0.27,"N","N","","",43,"NORMAL",0.03],["CDISCPILOT01","1015","01-701-1015","Placebo",0,"Placebo",0,"2014-01-02","2014-07-02",63,"<65",1,"WHITE",1,"F","Y","","Y","          Week 2",2,15,"2014-01-16","WEEK 2",4,"Platelet (GI/L)","PLAT",11,"HEM",306,266,40,130,394,2.35384615385,0.776649746193,2.04615384615,0.675126903553,"",285,"N","N","","",67,"NORMAL",306],["CDISCPILOT01","1015","01-701-1015","Placebo",0,"Placebo",0,"2014-01-02","2014-07-02",63,"<65",1,"WHITE",1,"F","Y","","Y","          Week 2",2,15,"2014-01-16","WEEK 2",4,"Erythrocytes (TI/L)","RBC",12,"HEM",5.3,5.3,0,3.9,5.5,1.35897435897,0.963636363636,1.35897435897,0.963636363636,"",3.35,"N","N","","",69,"NORMAL",5.3],["CDISCPILOT01","1015","01-701-1015","Placebo",0,"Placebo",0,"2014-01-02","2014-07-02",63,"<65",1,"WHITE",1,"F","Y","","Y","          Week 2",2,15,"2014-01-16","WEEK 2",4,"Hemoglobin (mmol/L) change from previous visit, relative to normal range","_HGB",101,"HEM",0,null,null,null,null,null,null,null,null,"",5.84042,"N","","","",56,"NORMAL",8.87458],["CDISCPILOT01","1015","01-701-1015","Placebo",0,"Placebo",0,"2014-01-02","2014-07-02",63,"<65",1,"WHITE",1,"F","Y","","Y","          Week 2",2,15,"2014-01-16","WEEK 2",4,"Hematocrit change from previous visit, relative to normal range","_HCT",102,"HEM",0.1,null,null,null,null,null,null,null,null,"",0.29,"N","","","",55,"NORMAL",0.43],["CDISCPILOT01","1015","01-701-1015","Placebo",0,"Placebo",0,"2014-01-02","2014-07-02",63,"<65",1,"WHITE",1,"F","Y","","Y","          Week 2",2,15,"2014-01-16","WEEK 2",4,"Ery. Mean Corpuscular Volume (fL) change from previous visit, relative to normal range","_MCV",103,"HEM",0.1,null,null,null,null,null,null,null,null,"",69,"N","","","",62,"NORMAL",81],["CDISCPILOT01","1015","01-701-1015","Placebo",0,"Placebo",0,"2014-01-02","2014-07-02",63,"<65",1,"WHITE",1,"F","Y","","Y","          Week 2",2,15,"2014-01-16","WEEK 2",4,"Ery. Mean Corpuscular Hemoglobin (fmol(Fe)) change from previous visit, relative to normal range","_MCH",104,"HEM",0,null,null,null,null,null,null,null,null,"",1.47438,"N","","","",60,"NORMAL",1.67562],["CDISCPILOT01","1015","01-701-1015","Placebo",0,"Placebo",0,"2014-01-02","2014-07-02",63,"<65",1,"WHITE",1,"F","Y","","Y","          Week 2",2,15,"2014-01-16","WEEK 2",4,"Ery. Mean Corpuscular HGB Concentration (mmol/L) change from previous visit, relative to normal rang","_MCHC",105,"HEM",-0.2,null,null,null,null,null,null,null,null,"",15.5202,"N","","","",61,"NORMAL",20.4798],["CDISCPILOT01","1015","01-701-1015","Placebo",0,"Placebo",0,"2014-01-02","2014-07-02",63,"<65",1,"WHITE",1,"F","Y","","Y","          Week 2",2,15,"2014-01-16","WEEK 2",4,"Leukocytes (GI/L) change from previous visit, relative to normal range","_WBC",106,"HEM",-0.1,null,null,null,null,null,null,null,null,"",10.72,"N","","","",73,"NORMAL",5.33],["CDISCPILOT01","1015","01-701-1015","Placebo",0,"Placebo",0,"2014-01-02","2014-07-02",63,"<65",1,"WHITE",1,"F","Y","","Y","          Week 2",2,15,"2014-01-16","WEEK 2",4,"Lymphocytes (GI/L) change from previous visit, relative to normal range","_LYM",107,"HEM",-0.1,null,null,null,null,null,null,null,null,"",2.52,"N","","","",59,"NORMAL",1.98],["CDISCPILOT01","1015","01-701-1015","Placebo",0,"Placebo",0,"2014-01-02","2014-07-02",63,"<65",1,"WHITE",1,"F","Y","","Y","          Week 2",2,15,"2014-01-16","WEEK 2",4,"Monocytes (GI/L) change from previous visit, relative to normal range","_MONO",108,"HEM",0.1,null,null,null,null,null,null,null,null,"",1.12,"N","","","",63,"NORMAL",0.26],["CDISCPILOT01","1015","01-701-1015","Placebo",0,"Placebo",0,"2014-01-02","2014-07-02",63,"<65",1,"WHITE",1,"F","Y","","Y","          Week 2",2,15,"2014-01-16","WEEK 2",4,"Eosinophils (GI/L) change from previous visit, relative to normal range","_EOS",109,"HEM",-0.2,null,null,null,null,null,null,null,null,"Y",0.775,"N","","","",52,"NORMAL",0.08],["CDISCPILOT01","1015","01-701-1015","Placebo",0,"Placebo",0,"2014-01-02","2014-07-02",63,"<65",1,"WHITE",1,"F","Y","","Y","          Week 2",2,15,"2014-01-16","WEEK 2",4,"Basophils (GI/L) change from previous visit, relative to normal range","_BASO",110,"HEM",-0.2,null,null,null,null,null,null,null,null,"Y",0.27,"N","","","",43,"NORMAL",0.03],["CDISCPILOT01","1015","01-701-1015","Placebo",0,"Placebo",0,"2014-01-02","2014-07-02",63,"<65",1,"WHITE",1,"F","Y","","Y","          Week 2",2,15,"2014-01-16","WEEK 2",4,"Platelet (GI/L) change from previous visit, relative to normal range","_PLAT",111,"HEM",0.3,null,null,null,null,null,null,null,null,"",285,"N","","","",67,"NORMAL",306],["CDISCPILOT01","1015","01-701-1015","Placebo",0,"Placebo",0,"2014-01-02","2014-07-02",63,"<65",1,"WHITE",1,"F","Y","","Y","          Week 2",2,15,"2014-01-16","WEEK 2",4,"Erythrocytes (TI/L) change from previous visit, relative to normal range","_RBC",112,"HEM",0,null,null,null,null,null,null,null,null,"",3.35,"N","","","",69,"NORMAL",5.3],["CDISCPILOT01","1015","01-701-1015","Placebo",0,"Placebo",0,"2014-01-02","2014-07-02",63,"<65",1,"WHITE",1,"F","Y","","Y","          Week 4",4,29,"2014-01-30","WEEK 4",5,"Hemoglobin (mmol/L)","HGB",1,"HEM",8.31604,8.87458,-0.55854,7.14,9.81,1.16471148459,0.84771049949,1.24293837535,0.904646279307,"Y",6.39896,"N","N","","",90,"NORMAL",8.31604],["CDISCPILOT01","1015","01-701-1015","Placebo",0,"Placebo",0,"2014-01-02","2014-07-02",63,"<65",1,"WHITE",1,"F","Y","","Y","          Week 4",4,29,"2014-01-30","WEEK 4",5,"Hematocrit","HCT",2,"HEM",0.39,0.42,-0.03,0.34,0.48,1.14705882353,0.8125,1.23529411765,0.875,"Y",0.33,"N","N","","",89,"NORMAL",0.39],["CDISCPILOT01","1015","01-701-1015","Placebo",0,"Placebo",0,"2014-01-02","2014-07-02",63,"<65",1,"WHITE",1,"F","Y","","Y","          Week 4",4,29,"2014-01-30","WEEK 4",5,"Ery. Mean Corpuscular Volume (fL)","MCV",3,"HEM",78,80,-2,80,100,0.975,0.78,1,0.8,"Y",72,"N","N","","",95,"LOW",78],["CDISCPILOT01","1015","01-701-1015","Placebo",0,"Placebo",0,"2014-01-02","2014-07-02",63,"<65",1,"WHITE",1,"F","Y","","Y","          Week 4",4,29,"2014-01-30","WEEK 4",5,"Ery. Mean Corpuscular Hemoglobin (fmol(Fe))","MCH",4,"HEM",1.67562,1.67562,0,1.6,2.1,1.0472625,0.797914285714,1.0472625,0.797914285714,"",1.47438,"N","N","","",93,"NORMAL",1.67562],["CDISCPILOT01","1015","01-701-1015","Placebo",0,"Placebo",0,"2014-01-02","2014-07-02",63,"<65",1,"WHITE",1,"F","Y","","Y","          Week 4",4,29,"2014-01-30","WEEK 4",5,"Ery. Mean Corpuscular HGB Concentration (mmol/L)","MCHC",5,"HEM",21.1004,21.1004,0,19,24,1.11054736842,0.879183333333,1.11054736842,0.879183333333,"",14.8996,"N","N","","",94,"NORMAL",21.1004],["CDISCPILOT01","1015","01-701-1015","Placebo",0,"Placebo",0,"2014-01-02","2014-07-02",63,"<65",1,"WHITE",1,"F","Y","","Y","          Week 4",4,29,"2014-01-30","WEEK 4",5,"Leukocytes (GI/L)","WBC",6,"HEM",4.54,5.78,-1.24,3.8,10.7,1.19473684211,0.424299065421,1.52105263158,0.540186915888,"",11.51,"N","N","","",103,"NORMAL",4.54],["CDISCPILOT01","1015","01-701-1015","Placebo",0,"Placebo",0,"2014-01-02","2014-07-02",63,"<65",1,"WHITE",1,"F","Y","","Y","          Week 4",4,29,"2014-01-30","WEEK 4",5,"Lymphocytes (GI/L)","LYM",7,"HEM",1.93,2.11,-0.18,0.8,3,2.4125,0.643333333333,2.6375,0.703333333333,"",2.57,"N","N","","",92,"NORMAL",1.93],["CDISCPILOT01","1015","01-701-1015","Placebo",0,"Placebo",0,"2014-01-02","2014-07-02",63,"<65",1,"WHITE",1,"F","Y","","Y","          Week 4",4,29,"2014-01-30","WEEK 4",5,"Monocytes (GI/L)","MONO",8,"HEM",0.23,0.22,0.01,0.12,0.92,1.91666666667,0.25,1.83333333333,0.239130434783,"Y",1.15,"N","N","","",96,"NORMAL",0.23],["CDISCPILOT01","1015","01-701-1015","Placebo",0,"Placebo",0,"2014-01-02","2014-07-02",63,"<65",1,"WHITE",1,"F","Y","","Y","          Week 4",4,29,"2014-01-30","WEEK 4",5,"Eosinophils (GI/L)","EOS",9,"HEM",0.08,0.13,-0.05,null,0.57,null,0.140350877193,null,0.228070175439,"",0.775,"N","N","","",86,"NORMAL",0.08],["CDISCPILOT01","1015","01-701-1015","Placebo",0,"Placebo",0,"2014-01-02","2014-07-02",63,"<65",1,"WHITE",1,"F","Y","","Y","          Week 4",4,29,"2014-01-30","WEEK 4",5,"Basophils (GI/L)","BASO",10,"HEM",0.02,0.05,-0.03,null,0.2,null,0.1,null,0.25,"Y",0.28,"N","N","","",78,"NORMAL",0.02],["CDISCPILOT01","1015","01-701-1015","Placebo",0,"Placebo",0,"2014-01-02","2014-07-02",63,"<65",1,"WHITE",1,"F","Y","","Y","          Week 4",4,29,"2014-01-30","WEEK 4",5,"Platelet (GI/L)","PLAT",11,"HEM",238,266,-28,130,394,1.83076923077,0.604060913706,2.04615384615,0.675126903553,"",353,"N","N","","",99,"NORMAL",238],["CDISCPILOT01","1015","01-701-1015","Placebo",0,"Placebo",0,"2014-01-02","2014-07-02",63,"<65",1,"WHITE",1,"F","Y","","Y","          Week 4",4,29,"2014-01-30","WEEK 4",5,"Erythrocytes (TI/L)","RBC",12,"HEM",5,5.3,-0.3,3.9,5.5,1.28205128205,0.909090909091,1.35897435897,0.963636363636,"",3.25,"N","N","","",101,"NORMAL",5],["CDISCPILOT01","1015","01-701-1015","Placebo",0,"Placebo",0,"2014-01-02","2014-07-02",63,"<65",1,"WHITE",1,"F","Y","","Y","          Week 4",4,29,"2014-01-30","WEEK 4",5,"Hemoglobin (mmol/L) change from previous visit, relative to normal range","_HGB",101,"HEM",-0.4,null,null,null,null,null,null,null,null,"Y",6.39896,"N","","","",90,"NORMAL",8.31604],["CDISCPILOT01","1015","01-701-1015","Placebo",0,"Placebo",0,"2014-01-02","2014-07-02",63,"<65",1,"WHITE",1,"F","Y","","Y","          Week 4",4,29,"2014-01-30","WEEK 4",5,"Hematocrit change from previous visit, relative to normal range","_HCT",102,"HEM",-0.6,null,null,null,null,null,null,null,null,"Y",0.33,"N","","","",89,"NORMAL",0.39],["CDISCPILOT01","1015","01-701-1015","Placebo",0,"Placebo",0,"2014-01-02","2014-07-02",63,"<65",1,"WHITE",1,"F","Y","","Y","          Week 4",4,29,"2014-01-30","WEEK 4",5,"Ery. Mean Corpuscular Volume (fL) change from previous visit, relative to normal range","_MCV",103,"HEM",-0.3,null,null,null,null,null,null,null,null,"Y",72,"N","","","",95,"LOW",78],["CDISCPILOT01","1015","01-701-1015","Placebo",0,"Placebo",0,"2014-01-02","2014-07-02",63,"<65",1,"WHITE",1,"F","Y","","Y","          Week 4",4,29,"2014-01-30","WEEK 4",5,"Ery. Mean Corpuscular Hemoglobin (fmol(Fe)) change from previous visit, relative to normal range","_MCH",104,"HEM",0,null,null,null,null,null,null,null,null,"",1.47438,"N","","","",93,"NORMAL",1.67562],["CDISCPILOT01","1015","01-701-1015","Placebo",0,"Placebo",0,"2014-01-02","2014-07-02",63,"<65",1,"WHITE",1,"F","Y","","Y","          Week 4",4,29,"2014-01-30","WEEK 4",5,"Ery. Mean Corpuscular HGB Concentration (mmol/L) change from previous visit, relative to normal rang","_MCHC",105,"HEM",0.2,null,null,null,null,null,null,null,null,"",14.8996,"N","","","",94,"NORMAL",21.1004],["CDISCPILOT01","1015","01-701-1015","Placebo",0,"Placebo",0,"2014-01-02","2014-07-02",63,"<65",1,"WHITE",1,"F","Y","","Y","          Week 4",4,29,"2014-01-30","WEEK 4",5,"Leukocytes (GI/L) change from previous visit, relative to normal range","_WBC",106,"HEM",-0.2,null,null,null,null,null,null,null,null,"",11.51,"N","","","",103,"NORMAL",4.54],["CDISCPILOT01","1015","01-701-1015","Placebo",0,"Placebo",0,"2014-01-02","2014-07-02",63,"<65",1,"WHITE",1,"F","Y","","Y","          Week 4",4,29,"2014-01-30","WEEK 4",5,"Lymphocytes (GI/L) change from previous visit, relative to normal range","_LYM",107,"HEM",0,null,null,null,null,null,null,null,null,"",2.57,"N","","","",92,"NORMAL",1.93],["CDISCPILOT01","1015","01-701-1015","Placebo",0,"Placebo",0,"2014-01-02","2014-07-02",63,"<65",1,"WHITE",1,"F","Y","","Y","          Week 4",4,29,"2014-01-30","WEEK 4",5,"Monocytes (GI/L) change from previous visit, relative to normal range","_MONO",108,"HEM",-0.1,null,null,null,null,null,null,null,null,"",1.15,"N","","","",96,"NORMAL",0.23],["CDISCPILOT01","1015","01-701-1015","Placebo",0,"Placebo",0,"2014-01-02","2014-07-02",63,"<65",1,"WHITE",1,"F","Y","","Y","          Week 4",4,29,"2014-01-30","WEEK 4",5,"Eosinophils (GI/L) change from previous visit, relative to normal range","_EOS",109,"HEM",0,null,null,null,null,null,null,null,null,"",0.775,"N","","","",86,"NORMAL",0.08],["CDISCPILOT01","1015","01-701-1015","Placebo",0,"Placebo",0,"2014-01-02","2014-07-02",63,"<65",1,"WHITE",1,"F","Y","","Y","          Week 4",4,29,"2014-01-30","WEEK 4",5,"Basophils (GI/L) change from previous visit, relative to normal range","_BASO",110,"HEM",-0.1,null,null,null,null,null,null,null,null,"",0.28,"N","","","",78,"NORMAL",0.02],["CDISCPILOT01","1015","01-701-1015","Placebo",0,"Placebo",0,"2014-01-02","2014-07-02",63,"<65",1,"WHITE",1,"F","Y","","Y","          Week 4",4,29,"2014-01-30","WEEK 4",5,"Platelet (GI/L) change from previous visit, relative to normal range","_PLAT",111,"HEM",-0.5,null,null,null,null,null,null,null,null,"Y",353,"N","","","",99,"NORMAL",238],["CDISCPILOT01","1015","01-701-1015","Placebo",0,"Placebo",0,"2014-01-02","2014-07-02",63,"<65",1,"WHITE",1,"F","Y","","Y","          Week 4",4,29,"2014-01-30","WEEK 4",5,"Erythrocytes (TI/L) change from previous visit, relative to normal range","_RBC",112,"HEM",-0.4,null,null,null,null,null,null,null,null,"",3.25,"N","","","",101,"NORMAL",5],["CDISCPILOT01","1015","01-701-1015","Placebo",0,"Placebo",0,"2014-01-02","2014-07-02",63,"<65",1,"WHITE",1,"F","Y","","Y","          Week 6",6,42,"2014-02-12","WEEK 6",7,"Hemoglobin (mmol/L)","HGB",1,"HEM",8.56428,8.87458,-0.3103,7.14,9.81,1.1994789916,0.87301529052,1.24293837535,0.904646279307,"",6.15072,"N","N","","",120,"NORMAL",8.56428],["CDISCPILOT01","1015","01-701-1015","Placebo",0,"Placebo",0,"2014-01-02","2014-07-02",63,"<65",1,"WHITE",1,"F","Y","","Y","          Week 6",6,42,"2014-02-12","WEEK 6",7,"Hematocrit","HCT",2,"HEM",0.4,0.42,-0.02,0.34,0.48,1.17647058824,0.833333333333,1.23529411765,0.875,"",0.32,"N","N","","",119,"NORMAL",0.4],["CDISCPILOT01","1015","01-701-1015","Placebo",0,"Placebo",0,"2014-01-02","2014-07-02",63,"<65",1,"WHITE",1,"F","Y","","Y","          Week 6",6,42,"2014-02-12","WEEK 6",7,"Ery. Mean Corpuscular Volume (fL)","MCV",3,"HEM",80,80,0,80,100,1,0.8,1,0.8,"",70,"N","N","","",125,"NORMAL",80],["CDISCPILOT01","1015","01-701-1015","Placebo",0,"Placebo",0,"2014-01-02","2014-07-02",63,"<65",1,"WHITE",1,"F","Y","","Y","          Week 6",6,42,"2014-02-12","WEEK 6",7,"Ery. Mean Corpuscular Hemoglobin (fmol(Fe))","MCH",4,"HEM",1.67562,1.67562,0,1.6,2.1,1.0472625,0.797914285714,1.0472625,0.797914285714,"",1.47438,"N","N","","",123,"NORMAL",1.67562],["CDISCPILOT01","1015","01-701-1015","Placebo",0,"Placebo",0,"2014-01-02","2014-07-02",63,"<65",1,"WHITE",1,"F","Y","","Y","          Week 6",6,42,"2014-02-12","WEEK 6",7,"Ery. Mean Corpuscular HGB Concentration (mmol/L)","MCHC",5,"HEM",21.1004,21.1004,0,19,24,1.11054736842,0.879183333333,1.11054736842,0.879183333333,"",14.8996,"N","N","","",124,"NORMAL",21.1004],["CDISCPILOT01","1015","01-701-1015","Placebo",0,"Placebo",0,"2014-01-02","2014-07-02",63,"<65",1,"WHITE",1,"F","Y","","Y","          Week 6",6,42,"2014-02-12","WEEK 6",7,"Leukocytes (GI/L)","WBC",6,"HEM",4.25,5.78,-1.53,3.8,10.7,1.11842105263,0.397196261682,1.52105263158,0.540186915888,"Y",11.8,"N","N","","",133,"NORMAL",4.25],["CDISCPILOT01","1015","01-701-1015","Placebo",0,"Placebo",0,"2014-01-02","2014-07-02",63,"<65",1,"WHITE",1,"F","Y","","Y","          Week 6",6,42,"2014-02-12","WEEK 6",7,"Lymphocytes (GI/L)","LYM",7,"HEM",1.51,2.11,-0.6,0.8,3,1.8875,0.503333333333,2.6375,0.703333333333,"Y",2.99,"N","N","","",122,"NORMAL",1.51],["CDISCPILOT01","1015","01-701-1015","Placebo",0,"Placebo",0,"2014-01-02","2014-07-02",63,"<65",1,"WHITE",1,"F","Y","","Y","          Week 6",6,42,"2014-02-12","WEEK 6",7,"Monocytes (GI/L)","MONO",8,"HEM",0.28,0.22,0.06,0.12,0.92,2.33333333333,0.304347826087,1.83333333333,0.239130434783,"",1.1,"N","N","","",126,"NORMAL",0.28],["CDISCPILOT01","1015","01-701-1015","Placebo",0,"Placebo",0,"2014-01-02","2014-07-02",63,"<65",1,"WHITE",1,"F","Y","","Y","          Week 6",6,42,"2014-02-12","WEEK 6",7,"Eosinophils (GI/L)","EOS",9,"HEM",0.08,0.13,-0.05,null,0.57,null,0.140350877193,null,0.228070175439,"",0.775,"N","N","","",116,"NORMAL",0.08],["CDISCPILOT01","1015","01-701-1015","Placebo",0,"Placebo",0,"2014-01-02","2014-07-02",63,"<65",1,"WHITE",1,"F","Y","","Y","          Week 6",6,42,"2014-02-12","WEEK 6",7,"Basophils (GI/L)","BASO",10,"HEM",0.04,0.05,-0.01,null,0.2,null,0.2,null,0.25,"",0.26,"N","N","","",108,"NORMAL",0.04],["CDISCPILOT01","1015","01-701-1015","Placebo",0,"Placebo",0,"2014-01-02","2014-07-02",63,"<65",1,"WHITE",1,"F","Y","","Y","          Week 6",6,42,"2014-02-12","WEEK 6",7,"Platelet (GI/L)","PLAT",11,"HEM",237,266,-29,130,394,1.82307692308,0.60152284264,2.04615384615,0.675126903553,"",354,"N","N","","",129,"NORMAL",237],["CDISCPILOT01","1015","01-701-1015","Placebo",0,"Placebo",0,"2014-01-02","2014-07-02",63,"<65",1,"WHITE",1,"F","Y","","Y","          Week 6",6,42,"2014-02-12","WEEK 6",7,"Erythrocytes (TI/L)","RBC",12,"HEM",5.1,5.3,-0.2,3.9,5.5,1.30769230769,0.927272727273,1.35897435897,0.963636363636,"",3.15,"N","N","","",131,"NORMAL",5.1],["CDISCPILOT01","1015","01-701-1015","Placebo",0,"Placebo",0,"2014-01-02","2014-07-02",63,"<65",1,"WHITE",1,"F","Y","","Y","          Week 6",6,42,"2014-02-12","WEEK 6",7,"Hemoglobin (mmol/L) change from previous visit, relative to normal range","_HGB",101,"HEM",0.2,null,null,null,null,null,null,null,null,"",6.15072,"N","","","",120,"NORMAL",8.56428],["CDISCPILOT01","1015","01-701-1015","Placebo",0,"Placebo",0,"2014-01-02","2014-07-02",63,"<65",1,"WHITE",1,"F","Y","","Y","          Week 6",6,42,"2014-02-12","WEEK 6",7,"Hematocrit change from previous visit, relative to normal range","_HCT",102,"HEM",0.1,null,null,null,null,null,null,null,null,"",0.32,"N","","","",119,"NORMAL",0.4],["CDISCPILOT01","1015","01-701-1015","Placebo",0,"Placebo",0,"2014-01-02","2014-07-02",63,"<65",1,"WHITE",1,"F","Y","","Y","          Week 6",6,42,"2014-02-12","WEEK 6",7,"Ery. Mean Corpuscular Volume (fL) change from previous visit, relative to normal range","_MCV",103,"HEM",0.2,null,null,null,null,null,null,null,null,"",70,"N","","","",125,"NORMAL",80],["CDISCPILOT01","1015","01-701-1015","Placebo",0,"Placebo",0,"2014-01-02","2014-07-02",63,"<65",1,"WHITE",1,"F","Y","","Y","          Week 6",6,42,"2014-02-12","WEEK 6",7,"Ery. Mean Corpuscular Hemoglobin (fmol(Fe)) change from previous visit, relative to normal range","_MCH",104,"HEM",0,null,null,null,null,null,null,null,null,"",1.47438,"N","","","",123,"NORMAL",1.67562],["CDISCPILOT01","1015","01-701-1015","Placebo",0,"Placebo",0,"2014-01-02","2014-07-02",63,"<65",1,"WHITE",1,"F","Y","","Y","          Week 6",6,42,"2014-02-12","WEEK 6",7,"Ery. Mean Corpuscular HGB Concentration (mmol/L) change from previous visit, relative to normal rang","_MCHC",105,"HEM",0,null,null,null,null,null,null,null,null,"",14.8996,"N","","","",124,"NORMAL",21.1004],["CDISCPILOT01","1015","01-701-1015","Placebo",0,"Placebo",0,"2014-01-02","2014-07-02",63,"<65",1,"WHITE",1,"F","Y","","Y","          Week 6",6,42,"2014-02-12","WEEK 6",7,"Leukocytes (GI/L) change from previous visit, relative to normal range","_WBC",106,"HEM",-0.1,null,null,null,null,null,null,null,null,"",11.8,"N","","","",133,"NORMAL",4.25],["CDISCPILOT01","1015","01-701-1015","Placebo",0,"Placebo",0,"2014-01-02","2014-07-02",63,"<65",1,"WHITE",1,"F","Y","","Y","          Week 6",6,42,"2014-02-12","WEEK 6",7,"Lymphocytes (GI/L) change from previous visit, relative to normal range","_LYM",107,"HEM",-0.4,null,null,null,null,null,null,null,null,"",2.99,"N","","","",122,"NORMAL",1.51],["CDISCPILOT01","1015","01-701-1015","Placebo",0,"Placebo",0,"2014-01-02","2014-07-02",63,"<65",1,"WHITE",1,"F","Y","","Y","          Week 6",6,42,"2014-02-12","WEEK 6",7,"Monocytes (GI/L) change from previous visit, relative to normal range","_MONO",108,"HEM",0.1,null,null,null,null,null,null,null,null,"",1.1,"N","","","",126,"NORMAL",0.28],["CDISCPILOT01","1015","01-701-1015","Placebo",0,"Placebo",0,"2014-01-02","2014-07-02",63,"<65",1,"WHITE",1,"F","Y","","Y","          Week 6",6,42,"2014-02-12","WEEK 6",7,"Eosinophils (GI/L) change from previous visit, relative to normal range","_EOS",109,"HEM",0,null,null,null,null,null,null,null,null,"",0.775,"N","","","",116,"NORMAL",0.08],["CDISCPILOT01","1015","01-701-1015","Placebo",0,"Placebo",0,"2014-01-02","2014-07-02",63,"<65",1,"WHITE",1,"F","Y","","Y","          Week 6",6,42,"2014-02-12","WEEK 6",7,"Basophils (GI/L) change from previous visit, relative to normal range","_BASO",110,"HEM",0.2,null,null,null,null,null,null,null,null,"",0.26,"N","","","",108,"NORMAL",0.04],["CDISCPILOT01","1015","01-701-1015","Placebo",0,"Placebo",0,"2014-01-02","2014-07-02",63,"<65",1,"WHITE",1,"F","Y","","Y","          Week 6",6,42,"2014-02-12","WEEK 6",7,"Platelet (GI/L) change from previous visit, relative to normal range","_PLAT",111,"HEM",0,null,null,null,null,null,null,null,null,"",354,"N","","","",129,"NORMAL",237],["CDISCPILOT01","1015","01-701-1015","Placebo",0,"Placebo",0,"2014-01-02","2014-07-02",63,"<65",1,"WHITE",1,"F","Y","","Y","          Week 6",6,42,"2014-02-12","WEEK 6",7,"Erythrocytes (TI/L) change from previous visit, relative to normal range","_RBC",112,"HEM",0.1,null,null,null,null,null,null,null,null,"",3.15,"N","","","",131,"NORMAL",5.1],["CDISCPILOT01","1015","01-701-1015","Placebo",0,"Placebo",0,"2014-01-02","2014-07-02",63,"<65",1,"WHITE",1,"F","Y","","Y","          Week 8",8,63,"2014-03-05","WEEK 8",8,"Hemoglobin (mmol/L)","HGB",1,"HEM",8.6884,8.87458,-0.18618,7.14,9.81,1.2168627451,0.885667686035,1.24293837535,0.904646279307,"",6.0266,"N","N","","",150,"NORMAL",8.6884],["CDISCPILOT01","1015","01-701-1015","Placebo",0,"Placebo",0,"2014-01-02","2014-07-02",63,"<65",1,"WHITE",1,"F","Y","","Y","          Week 8",8,63,"2014-03-05","WEEK 8",8,"Hematocrit","HCT",2,"HEM",0.42,0.42,0,0.34,0.48,1.23529411765,0.875,1.23529411765,0.875,"",0.3,"N","N","","",149,"NORMAL",0.42],["CDISCPILOT01","1015","01-701-1015","Placebo",0,"Placebo",0,"2014-01-02","2014-07-02",63,"<65",1,"WHITE",1,"F","Y","","Y","          Week 8",8,63,"2014-03-05","WEEK 8",8,"Ery. Mean Corpuscular Volume (fL)","MCV",3,"HEM",83,80,3,80,100,1.0375,0.83,1,0.8,"",67,"N","N","","",155,"NORMAL",83],["CDISCPILOT01","1015","01-701-1015","Placebo",0,"Placebo",0,"2014-01-02","2014-07-02",63,"<65",1,"WHITE",1,"F","Y","","Y","          Week 8",8,63,"2014-03-05","WEEK 8",8,"Ery. Mean Corpuscular Hemoglobin (fmol(Fe))","MCH",4,"HEM",1.67562,1.67562,0,1.6,2.1,1.0472625,0.797914285714,1.0472625,0.797914285714,"",1.47438,"N","N","","",153,"NORMAL",1.67562],["CDISCPILOT01","1015","01-701-1015","Placebo",0,"Placebo",0,"2014-01-02","2014-07-02",63,"<65",1,"WHITE",1,"F","Y","","Y","          Week 8",8,63,"2014-03-05","WEEK 8",8,"Ery. Mean Corpuscular HGB Concentration (mmol/L)","MCHC",5,"HEM",20.4798,21.1004,-0.6206,19,24,1.07788421053,0.853325,1.11054736842,0.879183333333,"",15.5202,"N","N","","",154,"NORMAL",20.4798],["CDISCPILOT01","1015","01-701-1015","Placebo",0,"Placebo",0,"2014-01-02","2014-07-02",63,"<65",1,"WHITE",1,"F","Y","","Y","          Week 8",8,63,"2014-03-05","WEEK 8",8,"Leukocytes (GI/L)","WBC",6,"HEM",5.35,5.78,-0.43,3.8,10.7,1.40789473684,0.5,1.52105263158,0.540186915888,"",10.7,"N","N","","",163,"NORMAL",5.35],["CDISCPILOT01","1015","01-701-1015","Placebo",0,"Placebo",0,"2014-01-02","2014-07-02",63,"<65",1,"WHITE",1,"F","Y","","Y","          Week 8",8,63,"2014-03-05","WEEK 8",8,"Lymphocytes (GI/L)","LYM",7,"HEM",1.97,2.11,-0.14,0.8,3,2.4625,0.656666666667,2.6375,0.703333333333,"",2.53,"N","N","","",152,"NORMAL",1.97],["CDISCPILOT01","1015","01-701-1015","Placebo",0,"Placebo",0,"2014-01-02","2014-07-02",63,"<65",1,"WHITE",1,"F","Y","","Y","          Week 8",8,63,"2014-03-05","WEEK 8",8,"Monocytes (GI/L)","MONO",8,"HEM",0.24,0.22,0.02,0.12,0.92,2,0.260869565217,1.83333333333,0.239130434783,"",1.14,"N","N","","",156,"NORMAL",0.24],["CDISCPILOT01","1015","01-701-1015","Placebo",0,"Placebo",0,"2014-01-02","2014-07-02",63,"<65",1,"WHITE",1,"F","Y","","Y","          Week 8",8,63,"2014-03-05","WEEK 8",8,"Eosinophils (GI/L)","EOS",9,"HEM",0.09,0.13,-0.04,null,0.57,null,0.157894736842,null,0.228070175439,"",0.765,"N","N","","",146,"NORMAL",0.09],["CDISCPILOT01","1015","01-701-1015","Placebo",0,"Placebo",0,"2014-01-02","2014-07-02",63,"<65",1,"WHITE",1,"F","Y","","Y","          Week 8",8,63,"2014-03-05","WEEK 8",8,"Basophils (GI/L)","BASO",10,"HEM",0.05,0.05,0,null,0.2,null,0.25,null,0.25,"",0.25,"N","N","","",138,"NORMAL",0.05],["CDISCPILOT01","1015","01-701-1015","Placebo",0,"Placebo",0,"2014-01-02","2014-07-02",63,"<65",1,"WHITE",1,"F","Y","","Y","          Week 8",8,63,"2014-03-05","WEEK 8",8,"Platelet (GI/L)","PLAT",11,"HEM",266,266,0,130,394,2.04615384615,0.675126903553,2.04615384615,0.675126903553,"",325,"N","N","","",159,"NORMAL",266],["CDISCPILOT01","1015","01-701-1015","Placebo",0,"Placebo",0,"2014-01-02","2014-07-02",63,"<65",1,"WHITE",1,"F","Y","","Y","          Week 8",8,63,"2014-03-05","WEEK 8",8,"Erythrocytes (TI/L)","RBC",12,"HEM",5.1,5.3,-0.2,3.9,5.5,1.30769230769,0.927272727273,1.35897435897,0.963636363636,"",3.15,"N","N","","",161,"NORMAL",5.1],["CDISCPILOT01","1015","01-701-1015","Placebo",0,"Placebo",0,"2014-01-02","2014-07-02",63,"<65",1,"WHITE",1,"F","Y","","Y","          Week 8",8,63,"2014-03-05","WEEK 8",8,"Hemoglobin (mmol/L) change from previous visit, relative to normal range","_HGB",101,"HEM",0.1,null,null,null,null,null,null,null,null,"",6.0266,"N","","","",150,"NORMAL",8.6884],["CDISCPILOT01","1015","01-701-1015","Placebo",0,"Placebo",0,"2014-01-02","2014-07-02",63,"<65",1,"WHITE",1,"F","Y","","Y","          Week 8",8,63,"2014-03-05","WEEK 8",8,"Hematocrit change from previous visit, relative to normal range","_HCT",102,"HEM",0.3,null,null,null,null,null,null,null,null,"",0.3,"N","","","",149,"NORMAL",0.42],["CDISCPILOT01","1015","01-701-1015","Placebo",0,"Placebo",0,"2014-01-02","2014-07-02",63,"<65",1,"WHITE",1,"F","Y","","Y","          Week 8",8,63,"2014-03-05","WEEK 8",8,"Ery. Mean Corpuscular Volume (fL) change from previous visit, relative to normal range","_MCV",103,"HEM",0.3,null,null,null,null,null,null,null,null,"",67,"N","","","",155,"NORMAL",83],["CDISCPILOT01","1015","01-701-1015","Placebo",0,"Placebo",0,"2014-01-02","2014-07-02",63,"<65",1,"WHITE",1,"F","Y","","Y","          Week 8",8,63,"2014-03-05","WEEK 8",8,"Ery. Mean Corpuscular Hemoglobin (fmol(Fe)) change from previous visit, relative to normal range","_MCH",104,"HEM",0,null,null,null,null,null,null,null,null,"",1.47438,"N","","","",153,"NORMAL",1.67562],["CDISCPILOT01","1015","01-701-1015","Placebo",0,"Placebo",0,"2014-01-02","2014-07-02",63,"<65",1,"WHITE",1,"F","Y","","Y","          Week 8",8,63,"2014-03-05","WEEK 8",8,"Ery. Mean Corpuscular HGB Concentration (mmol/L) change from previous visit, relative to normal rang","_MCHC",105,"HEM",-0.2,null,null,null,null,null,null,null,null,"",15.5202,"N","","","",154,"NORMAL",20.4798],["CDISCPILOT01","1015","01-701-1015","Placebo",0,"Placebo",0,"2014-01-02","2014-07-02",63,"<65",1,"WHITE",1,"F","Y","","Y","          Week 8",8,63,"2014-03-05","WEEK 8",8,"Leukocytes (GI/L) change from previous visit, relative to normal range","_WBC",106,"HEM",0.3,null,null,null,null,null,null,null,null,"",10.7,"N","","","",163,"NORMAL",5.35],["CDISCPILOT01","1015","01-701-1015","Placebo",0,"Placebo",0,"2014-01-02","2014-07-02",63,"<65",1,"WHITE",1,"F","Y","","Y","          Week 8",8,63,"2014-03-05","WEEK 8",8,"Lymphocytes (GI/L) change from previous visit, relative to normal range","_LYM",107,"HEM",0.4,null,null,null,null,null,null,null,null,"",2.53,"N","","","",152,"NORMAL",1.97],["CDISCPILOT01","1015","01-701-1015","Placebo",0,"Placebo",0,"2014-01-02","2014-07-02",63,"<65",1,"WHITE",1,"F","Y","","Y","          Week 8",8,63,"2014-03-05","WEEK 8",8,"Monocytes (GI/L) change from previous visit, relative to normal range","_MONO",108,"HEM",-0.1,null,null,null,null,null,null,null,null,"",1.14,"N","","","",156,"NORMAL",0.24],["CDISCPILOT01","1015","01-701-1015","Placebo",0,"Placebo",0,"2014-01-02","2014-07-02",63,"<65",1,"WHITE",1,"F","Y","","Y","          Week 8",8,63,"2014-03-05","WEEK 8",8,"Eosinophils (GI/L) change from previous visit, relative to normal range","_EOS",109,"HEM",0,null,null,null,null,null,null,null,null,"",0.765,"N","","","",146,"NORMAL",0.09],["CDISCPILOT01","1015","01-701-1015","Placebo",0,"Placebo",0,"2014-01-02","2014-07-02",63,"<65",1,"WHITE",1,"F","Y","","Y","          Week 8",8,63,"2014-03-05","WEEK 8",8,"Basophils (GI/L) change from previous visit, relative to normal range","_BASO",110,"HEM",0.1,null,null,null,null,null,null,null,null,"",0.25,"N","","","",138,"NORMAL",0.05],["CDISCPILOT01","1015","01-701-1015","Placebo",0,"Placebo",0,"2014-01-02","2014-07-02",63,"<65",1,"WHITE",1,"F","Y","","Y","          Week 8",8,63,"2014-03-05","WEEK 8",8,"Platelet (GI/L) change from previous visit, relative to normal range","_PLAT",111,"HEM",0.2,null,null,null,null,null,null,null,null,"",325,"N","","","",159,"NORMAL",266],["CDISCPILOT01","1015","01-701-1015","Placebo",0,"Placebo",0,"2014-01-02","2014-07-02",63,"<65",1,"WHITE",1,"F","Y","","Y","          Week 8",8,63,"2014-03-05","WEEK 8",8,"Erythrocytes (TI/L) change from previous visit, relative to normal range","_RBC",112,"HEM",0,null,null,null,null,null,null,null,null,"",3.15,"N","","","",161,"NORMAL",5.1],["CDISCPILOT01","1015","01-701-1015","Placebo",0,"Placebo",0,"2014-01-02","2014-07-02",63,"<65",1,"WHITE",1,"F","Y","","Y","         Week 12",12,84,"2014-03-26","WEEK 12",9,"Hemoglobin (mmol/L)","HGB",1,"HEM",8.31604,8.87458,-0.55854,7.14,9.81,1.16471148459,0.84771049949,1.24293837535,0.904646279307,"",6.39896,"N","N","","",181,"NORMAL",8.31604],["CDISCPILOT01","1015","01-701-1015","Placebo",0,"Placebo",0,"2014-01-02","2014-07-02",63,"<65",1,"WHITE",1,"F","Y","","Y","         Week 12",12,84,"2014-03-26","WEEK 12",9,"Hematocrit","HCT",2,"HEM",0.41,0.42,-0.01,0.34,0.48,1.20588235294,0.854166666667,1.23529411765,0.875,"",0.31,"N","N","","",180,"NORMAL",0.41],["CDISCPILOT01","1015","01-701-1015","Placebo",0,"Placebo",0,"2014-01-02","2014-07-02",63,"<65",1,"WHITE",1,"F","Y","","Y","         Week 12",12,84,"2014-03-26","WEEK 12",9,"Ery. Mean Corpuscular Volume (fL)","MCV",3,"HEM",81,80,1,80,100,1.0125,0.81,1,0.8,"",69,"N","N","","",187,"NORMAL",81],["CDISCPILOT01","1015","01-701-1015","Placebo",0,"Placebo",0,"2014-01-02","2014-07-02",63,"<65",1,"WHITE",1,"F","Y","","Y","         Week 12",12,84,"2014-03-26","WEEK 12",9,"Ery. Mean Corpuscular Hemoglobin (fmol(Fe))","MCH",4,"HEM",1.67562,1.67562,0,1.6,2.1,1.0472625,0.797914285714,1.0472625,0.797914285714,"",1.47438,"N","N","","",185,"NORMAL",1.67562],["CDISCPILOT01","1015","01-701-1015","Placebo",0,"Placebo",0,"2014-01-02","2014-07-02",63,"<65",1,"WHITE",1,"F","Y","","Y","         Week 12",12,84,"2014-03-26","WEEK 12",9,"Ery. Mean Corpuscular HGB Concentration (mmol/L)","MCHC",5,"HEM",20.4798,21.1004,-0.6206,19,24,1.07788421053,0.853325,1.11054736842,0.879183333333,"",15.5202,"N","N","","",186,"NORMAL",20.4798],["CDISCPILOT01","1015","01-701-1015","Placebo",0,"Placebo",0,"2014-01-02","2014-07-02",63,"<65",1,"WHITE",1,"F","Y","","Y","         Week 12",12,84,"2014-03-26","WEEK 12",9,"Leukocytes (GI/L)","WBC",6,"HEM",5.24,5.78,-0.54,3.8,10.7,1.37894736842,0.489719626168,1.52105263158,0.540186915888,"",10.81,"N","N","","",198,"NORMAL",5.24],["CDISCPILOT01","1015","01-701-1015","Placebo",0,"Placebo",0,"2014-01-02","2014-07-02",63,"<65",1,"WHITE",1,"F","Y","","Y","         Week 12",12,84,"2014-03-26","WEEK 12",9,"Lymphocytes (GI/L)","LYM",7,"HEM",2.09,2.11,-0.02,0.8,3,2.6125,0.696666666667,2.6375,0.703333333333,"",2.41,"N","N","","",184,"NORMAL",2.09],["CDISCPILOT01","1015","01-701-1015","Placebo",0,"Placebo",0,"2014-01-02","2014-07-02",63,"<65",1,"WHITE",1,"F","Y","","Y","         Week 12",12,84,"2014-03-26","WEEK 12",9,"Monocytes (GI/L)","MONO",8,"HEM",0.24,0.22,0.02,0.12,0.92,2,0.260869565217,1.83333333333,0.239130434783,"",1.14,"N","N","","",188,"NORMAL",0.24],["CDISCPILOT01","1015","01-701-1015","Placebo",0,"Placebo",0,"2014-01-02","2014-07-02",63,"<65",1,"WHITE",1,"F","Y","","Y","         Week 12",12,84,"2014-03-26","WEEK 12",9,"Eosinophils (GI/L)","EOS",9,"HEM",0.13,0.13,0,null,0.57,null,0.228070175439,null,0.228070175439,"",0.725,"N","N","","",177,"NORMAL",0.13],["CDISCPILOT01","1015","01-701-1015","Placebo",0,"Placebo",0,"2014-01-02","2014-07-02",63,"<65",1,"WHITE",1,"F","Y","","Y","         Week 12",12,84,"2014-03-26","WEEK 12",9,"Basophils (GI/L)","BASO",10,"HEM",0.04,0.05,-0.01,null,0.2,null,0.2,null,0.25,"",0.26,"N","N","","",168,"NORMAL",0.04],["CDISCPILOT01","1015","01-701-1015","Placebo",0,"Placebo",0,"2014-01-02","2014-07-02",63,"<65",1,"WHITE",1,"F","Y","","Y","         Week 12",12,84,"2014-03-26","WEEK 12",9,"Platelet (GI/L)","PLAT",11,"HEM",260,266,-6,130,394,2,0.659898477157,2.04615384615,0.675126903553,"",331,"N","N","","",192,"NORMAL",260],["CDISCPILOT01","1015","01-701-1015","Placebo",0,"Placebo",0,"2014-01-02","2014-07-02",63,"<65",1,"WHITE",1,"F","Y","","Y","         Week 12",12,84,"2014-03-26","WEEK 12",9,"Erythrocytes (TI/L)","RBC",12,"HEM",5,5.3,-0.3,3.9,5.5,1.28205128205,0.909090909091,1.35897435897,0.963636363636,"",3.25,"N","N","","",194,"NORMAL",5],["CDISCPILOT01","1015","01-701-1015","Placebo",0,"Placebo",0,"2014-01-02","2014-07-02",63,"<65",1,"WHITE",1,"F","Y","","Y","         Week 12",12,84,"2014-03-26","WEEK 12",9,"Hemoglobin (mmol/L) change from previous visit, relative to normal range","_HGB",101,"HEM",-0.3,null,null,null,null,null,null,null,null,"",6.39896,"N","","","",181,"NORMAL",8.31604],["CDISCPILOT01","1015","01-701-1015","Placebo",0,"Placebo",0,"2014-01-02","2014-07-02",63,"<65",1,"WHITE",1,"F","Y","","Y","         Week 12",12,84,"2014-03-26","WEEK 12",9,"Hematocrit change from previous visit, relative to normal range","_HCT",102,"HEM",-0.1,null,null,null,null,null,null,null,null,"",0.31,"N","","","",180,"NORMAL",0.41],["CDISCPILOT01","1015","01-701-1015","Placebo",0,"Placebo",0,"2014-01-02","2014-07-02",63,"<65",1,"WHITE",1,"F","Y","","Y","         Week 12",12,84,"2014-03-26","WEEK 12",9,"Ery. Mean Corpuscular Volume (fL) change from previous visit, relative to normal range","_MCV",103,"HEM",-0.2,null,null,null,null,null,null,null,null,"",69,"N","","","",187,"NORMAL",81],["CDISCPILOT01","1015","01-701-1015","Placebo",0,"Placebo",0,"2014-01-02","2014-07-02",63,"<65",1,"WHITE",1,"F","Y","","Y","         Week 12",12,84,"2014-03-26","WEEK 12",9,"Ery. Mean Corpuscular Hemoglobin (fmol(Fe)) change from previous visit, relative to normal range","_MCH",104,"HEM",0,null,null,null,null,null,null,null,null,"",1.47438,"N","","","",185,"NORMAL",1.67562],["CDISCPILOT01","1015","01-701-1015","Placebo",0,"Placebo",0,"2014-01-02","2014-07-02",63,"<65",1,"WHITE",1,"F","Y","","Y","         Week 12",12,84,"2014-03-26","WEEK 12",9,"Ery. Mean Corpuscular HGB Concentration (mmol/L) change from previous visit, relative to normal rang","_MCHC",105,"HEM",0,null,null,null,null,null,null,null,null,"",15.5202,"N","","","",186,"NORMAL",20.4798],["CDISCPILOT01","1015","01-701-1015","Placebo",0,"Placebo",0,"2014-01-02","2014-07-02",63,"<65",1,"WHITE",1,"F","Y","","Y","         Week 12",12,84,"2014-03-26","WEEK 12",9,"Leukocytes (GI/L) change from previous visit, relative to normal range","_WBC",106,"HEM",0,null,null,null,null,null,null,null,null,"",10.81,"N","","","",198,"NORMAL",5.24],["CDISCPILOT01","1015","01-701-1015","Placebo",0,"Placebo",0,"2014-01-02","2014-07-02",63,"<65",1,"WHITE",1,"F","Y","","Y","         Week 12",12,84,"2014-03-26","WEEK 12",9,"Lymphocytes (GI/L) change from previous visit, relative to normal range","_LYM",107,"HEM",0.1,null,null,null,null,null,null,null,null,"",2.41,"N","","","",184,"NORMAL",2.09],["CDISCPILOT01","1015","01-701-1015","Placebo",0,"Placebo",0,"2014-01-02","2014-07-02",63,"<65",1,"WHITE",1,"F","Y","","Y","         Week 12",12,84,"2014-03-26","WEEK 12",9,"Monocytes (GI/L) change from previous visit, relative to normal range","_MONO",108,"HEM",0,null,null,null,null,null,null,null,null,"",1.14,"N","","","",188,"NORMAL",0.24],["CDISCPILOT01","1015","01-701-1015","Placebo",0,"Placebo",0,"2014-01-02","2014-07-02",63,"<65",1,"WHITE",1,"F","Y","","Y","         Week 12",12,84,"2014-03-26","WEEK 12",9,"Eosinophils (GI/L) change from previous visit, relative to normal range","_EOS",109,"HEM",0.1,null,null,null,null,null,null,null,null,"",0.725,"N","","","",177,"NORMAL",0.13],["CDISCPILOT01","1015","01-701-1015","Placebo",0,"Placebo",0,"2014-01-02","2014-07-02",63,"<65",1,"WHITE",1,"F","Y","","Y","         Week 12",12,84,"2014-03-26","WEEK 12",9,"Basophils (GI/L) change from previous visit, relative to normal range","_BASO",110,"HEM",-0.1,null,null,null,null,null,null,null,null,"",0.26,"N","","","",168,"NORMAL",0.04],["CDISCPILOT01","1015","01-701-1015","Placebo",0,"Placebo",0,"2014-01-02","2014-07-02",63,"<65",1,"WHITE",1,"F","Y","","Y","         Week 12",12,84,"2014-03-26","WEEK 12",9,"Platelet (GI/L) change from previous visit, relative to normal range","_PLAT",111,"HEM",0,null,null,null,null,null,null,null,null,"",331,"N","","","",192,"NORMAL",260],["CDISCPILOT01","1015","01-701-1015","Placebo",0,"Placebo",0,"2014-01-02","2014-07-02",63,"<65",1,"WHITE",1,"F","Y","","Y","         Week 12",12,84,"2014-03-26","WEEK 12",9,"Erythrocytes (TI/L) change from previous visit, relative to normal range","_RBC",112,"HEM",-0.1,null,null,null,null,null,null,null,null,"",3.25,"N","","","",194,"NORMAL",5],["CDISCPILOT01","1015","01-701-1015","Placebo",0,"Placebo",0,"2014-01-02","2014-07-02",63,"<65",1,"WHITE",1,"F","Y","","Y","         Week 16",16,126,"2014-05-07","WEEK 16",10,"Hemoglobin (mmol/L)","HGB",1,"HEM",8.75046,8.87458,-0.12412,7.14,9.81,1.22555462185,0.891993883792,1.24293837535,0.904646279307,"",5.96454,"N","N","","",215,"NORMAL",8.75046],["CDISCPILOT01","1015","01-701-1015","Placebo",0,"Placebo",0,"2014-01-02","2014-07-02",63,"<65",1,"WHITE",1,"F","Y","","Y","         Week 16",16,126,"2014-05-07","WEEK 16",10,"Hematocrit","HCT",2,"HEM",0.41,0.42,-0.01,0.34,0.48,1.20588235294,0.854166666667,1.23529411765,0.875,"",0.31,"N","N","","",214,"NORMAL",0.41],["CDISCPILOT01","1015","01-701-1015","Placebo",0,"Placebo",0,"2014-01-02","2014-07-02",63,"<65",1,"WHITE",1,"F","Y","","Y","         Week 16",16,126,"2014-05-07","WEEK 16",10,"Ery. Mean Corpuscular Volume (fL)","MCV",3,"HEM",79,80,-1,80,100,0.9875,0.79,1,0.8,"",71,"N","N","","",220,"LOW",79],["CDISCPILOT01","1015","01-701-1015","Placebo",0,"Placebo",0,"2014-01-02","2014-07-02",63,"<65",1,"WHITE",1,"F","Y","","Y","         Week 16",16,126,"2014-05-07","WEEK 16",10,"Ery. Mean Corpuscular Hemoglobin (fmol(Fe))","MCH",4,"HEM",1.67562,1.67562,0,1.6,2.1,1.0472625,0.797914285714,1.0472625,0.797914285714,"",1.47438,"N","N","","",218,"NORMAL",1.67562],["CDISCPILOT01","1015","01-701-1015","Placebo",0,"Placebo",0,"2014-01-02","2014-07-02",63,"<65",1,"WHITE",1,"F","Y","","Y","         Week 16",16,126,"2014-05-07","WEEK 16",10,"Ery. Mean Corpuscular HGB Concentration (mmol/L)","MCHC",5,"HEM",21.721,21.1004,0.6206,19,24,1.14321052632,0.905041666667,1.11054736842,0.879183333333,"",14.279,"N","N","","",219,"NORMAL",21.721],["CDISCPILOT01","1015","01-701-1015","Placebo",0,"Placebo",0,"2014-01-02","2014-07-02",63,"<65",1,"WHITE",1,"F","Y","","Y","         Week 16",16,126,"2014-05-07","WEEK 16",10,"Leukocytes (GI/L)","WBC",6,"HEM",5.62,5.78,-0.16,3.8,10.7,1.47894736842,0.52523364486,1.52105263158,0.540186915888,"",10.43,"N","N","","",228,"NORMAL",5.62],["CDISCPILOT01","1015","01-701-1015","Placebo",0,"Placebo",0,"2014-01-02","2014-07-02",63,"<65",1,"WHITE",1,"F","Y","","Y","         Week 16",16,126,"2014-05-07","WEEK 16",10,"Lymphocytes (GI/L)","LYM",7,"HEM",2.02,2.11,-0.09,0.8,3,2.525,0.673333333333,2.6375,0.703333333333,"",2.48,"N","N","","",217,"NORMAL",2.02],["CDISCPILOT01","1015","01-701-1015","Placebo",0,"Placebo",0,"2014-01-02","2014-07-02",63,"<65",1,"WHITE",1,"F","Y","","Y","         Week 16",16,126,"2014-05-07","WEEK 16",10,"Monocytes (GI/L)","MONO",8,"HEM",0.33,0.22,0.11,0.12,0.92,2.75,0.358695652174,1.83333333333,0.239130434783,"",1.05,"N","N","","",221,"NORMAL",0.33],["CDISCPILOT01","1015","01-701-1015","Placebo",0,"Placebo",0,"2014-01-02","2014-07-02",63,"<65",1,"WHITE",1,"F","Y","","Y","         Week 16",16,126,"2014-05-07","WEEK 16",10,"Eosinophils (GI/L)","EOS",9,"HEM",0.09,0.13,-0.04,null,0.57,null,0.157894736842,null,0.228070175439,"",0.765,"N","N","","",211,"NORMAL",0.09],["CDISCPILOT01","1015","01-701-1015","Placebo",0,"Placebo",0,"2014-01-02","2014-07-02",63,"<65",1,"WHITE",1,"F","Y","","Y","         Week 16",16,126,"2014-05-07","WEEK 16",10,"Basophils (GI/L)","BASO",10,"HEM",0.03,0.05,-0.02,null,0.2,null,0.15,null,0.25,"",0.27,"N","N","","",203,"NORMAL",0.03],["CDISCPILOT01","1015","01-701-1015","Placebo",0,"Placebo",0,"2014-01-02","2014-07-02",63,"<65",1,"WHITE",1,"F","Y","","Y","         Week 16",16,126,"2014-05-07","WEEK 16",10,"Platelet (GI/L)","PLAT",11,"HEM",266,266,0,130,394,2.04615384615,0.675126903553,2.04615384615,0.675126903553,"",325,"N","N","","",224,"NORMAL",266],["CDISCPILOT01","1015","01-701-1015","Placebo",0,"Placebo",0,"2014-01-02","2014-07-02",63,"<65",1,"WHITE",1,"F","Y","","Y","         Week 16",16,126,"2014-05-07","WEEK 16",10,"Erythrocytes (TI/L)","RBC",12,"HEM",5.2,5.3,-0.1,3.9,5.5,1.33333333333,0.945454545455,1.35897435897,0.963636363636,"",3.25,"N","N","","",226,"NORMAL",5.2],["CDISCPILOT01","1015","01-701-1015","Placebo",0,"Placebo",0,"2014-01-02","2014-07-02",63,"<65",1,"WHITE",1,"F","Y","","Y","         Week 16",16,126,"2014-05-07","WEEK 16",10,"Hemoglobin (mmol/L) change from previous visit, relative to normal range","_HGB",101,"HEM",0.3,null,null,null,null,null,null,null,null,"",5.96454,"N","","","",215,"NORMAL",8.75046],["CDISCPILOT01","1015","01-701-1015","Placebo",0,"Placebo",0,"2014-01-02","2014-07-02",63,"<65",1,"WHITE",1,"F","Y","","Y","         Week 16",16,126,"2014-05-07","WEEK 16",10,"Hematocrit change from previous visit, relative to normal range","_HCT",102,"HEM",0,null,null,null,null,null,null,null,null,"",0.31,"N","","","",214,"NORMAL",0.41],["CDISCPILOT01","1015","01-701-1015","Placebo",0,"Placebo",0,"2014-01-02","2014-07-02",63,"<65",1,"WHITE",1,"F","Y","","Y","         Week 16",16,126,"2014-05-07","WEEK 16",10,"Ery. Mean Corpuscular Volume (fL) change from previous visit, relative to normal range","_MCV",103,"HEM",-0.2,null,null,null,null,null,null,null,null,"",71,"N","","","",220,"LOW",79],["CDISCPILOT01","1015","01-701-1015","Placebo",0,"Placebo",0,"2014-01-02","2014-07-02",63,"<65",1,"WHITE",1,"F","Y","","Y","         Week 16",16,126,"2014-05-07","WEEK 16",10,"Ery. Mean Corpuscular Hemoglobin (fmol(Fe)) change from previous visit, relative to normal range","_MCH",104,"HEM",0,null,null,null,null,null,null,null,null,"",1.47438,"N","","","",218,"NORMAL",1.67562],["CDISCPILOT01","1015","01-701-1015","Placebo",0,"Placebo",0,"2014-01-02","2014-07-02",63,"<65",1,"WHITE",1,"F","Y","","Y","         Week 16",16,126,"2014-05-07","WEEK 16",10,"Ery. Mean Corpuscular HGB Concentration (mmol/L) change from previous visit, relative to normal rang","_MCHC",105,"HEM",0.5,null,null,null,null,null,null,null,null,"",14.279,"N","","","",219,"NORMAL",21.721],["CDISCPILOT01","1015","01-701-1015","Placebo",0,"Placebo",0,"2014-01-02","2014-07-02",63,"<65",1,"WHITE",1,"F","Y","","Y","         Week 16",16,126,"2014-05-07","WEEK 16",10,"Leukocytes (GI/L) change from previous visit, relative to normal range","_WBC",106,"HEM",0.1,null,null,null,null,null,null,null,null,"",10.43,"N","","","",228,"NORMAL",5.62],["CDISCPILOT01","1015","01-701-1015","Placebo",0,"Placebo",0,"2014-01-02","2014-07-02",63,"<65",1,"WHITE",1,"F","Y","","Y","         Week 16",16,126,"2014-05-07","WEEK 16",10,"Lymphocytes (GI/L) change from previous visit, relative to normal range","_LYM",107,"HEM",-0.1,null,null,null,null,null,null,null,null,"",2.48,"N","","","",217,"NORMAL",2.02],["CDISCPILOT01","1015","01-701-1015","Placebo",0,"Placebo",0,"2014-01-02","2014-07-02",63,"<65",1,"WHITE",1,"F","Y","","Y","         Week 16",16,126,"2014-05-07","WEEK 16",10,"Monocytes (GI/L) change from previous visit, relative to normal range","_MONO",108,"HEM",0.2,null,null,null,null,null,null,null,null,"Y",1.05,"N","","","",221,"NORMAL",0.33],["CDISCPILOT01","1015","01-701-1015","Placebo",0,"Placebo",0,"2014-01-02","2014-07-02",63,"<65",1,"WHITE",1,"F","Y","","Y","         Week 16",16,126,"2014-05-07","WEEK 16",10,"Eosinophils (GI/L) change from previous visit, relative to normal range","_EOS",109,"HEM",-0.1,null,null,null,null,null,null,null,null,"",0.765,"N","","","",211,"NORMAL",0.09],["CDISCPILOT01","1015","01-701-1015","Placebo",0,"Placebo",0,"2014-01-02","2014-07-02",63,"<65",1,"WHITE",1,"F","Y","","Y","         Week 16",16,126,"2014-05-07","WEEK 16",10,"Basophils (GI/L) change from previous visit, relative to normal range","_BASO",110,"HEM",-0.1,null,null,null,null,null,null,null,null,"",0.27,"N","","","",203,"NORMAL",0.03],["CDISCPILOT01","1015","01-701-1015","Placebo",0,"Placebo",0,"2014-01-02","2014-07-02",63,"<65",1,"WHITE",1,"F","Y","","Y","         Week 16",16,126,"2014-05-07","WEEK 16",10,"Platelet (GI/L) change from previous visit, relative to normal range","_PLAT",111,"HEM",0,null,null,null,null,null,null,null,null,"",325,"N","","","",224,"NORMAL",266],["CDISCPILOT01","1015","01-701-1015","Placebo",0,"Placebo",0,"2014-01-02","2014-07-02",63,"<65",1,"WHITE",1,"F","Y","","Y","         Week 16",16,126,"2014-05-07","WEEK 16",10,"Erythrocytes (TI/L) change from previous visit, relative to normal range","_RBC",112,"HEM",0.3,null,null,null,null,null,null,null,null,"",3.25,"N","","","",226,"NORMAL",5.2],["CDISCPILOT01","1015","01-701-1015","Placebo",0,"Placebo",0,"2014-01-02","2014-07-02",63,"<65",1,"WHITE",1,"F","Y","","Y","         Week 20",20,140,"2014-05-21","WEEK 20",11,"Hemoglobin (mmol/L)","HGB",1,"HEM",8.50222,8.87458,-0.37236,7.14,9.81,1.19078711485,0.866689092762,1.24293837535,0.904646279307,"",6.21278,"N","N","","",245,"NORMAL",8.50222],["CDISCPILOT01","1015","01-701-1015","Placebo",0,"Placebo",0,"2014-01-02","2014-07-02",63,"<65",1,"WHITE",1,"F","Y","","Y","         Week 20",20,140,"2014-05-21","WEEK 20",11,"Hematocrit","HCT",2,"HEM",0.4,0.42,-0.02,0.34,0.48,1.17647058824,0.833333333333,1.23529411765,0.875,"",0.32,"N","N","","",244,"NORMAL",0.4],["CDISCPILOT01","1015","01-701-1015","Placebo",0,"Placebo",0,"2014-01-02","2014-07-02",63,"<65",1,"WHITE",1,"F","Y","","Y","         Week 20",20,140,"2014-05-21","WEEK 20",11,"Ery. Mean Corpuscular Volume (fL)","MCV",3,"HEM",80,80,0,80,100,1,0.8,1,0.8,"",70,"N","N","","",250,"NORMAL",80],["CDISCPILOT01","1015","01-701-1015","Placebo",0,"Placebo",0,"2014-01-02","2014-07-02",63,"<65",1,"WHITE",1,"F","Y","","Y","         Week 20",20,140,"2014-05-21","WEEK 20",11,"Ery. Mean Corpuscular Hemoglobin (fmol(Fe))","MCH",4,"HEM",1.73768,1.67562,0.06206,1.6,2.1,1.08605,0.827466666667,1.0472625,0.797914285714,"",1.41232,"N","N","","",248,"NORMAL",1.73768],["CDISCPILOT01","1015","01-701-1015","Placebo",0,"Placebo",0,"2014-01-02","2014-07-02",63,"<65",1,"WHITE",1,"F","Y","","Y","         Week 20",20,140,"2014-05-21","WEEK 20",11,"Ery. Mean Corpuscular HGB Concentration (mmol/L)","MCHC",5,"HEM",21.721,21.1004,0.6206,19,24,1.14321052632,0.905041666667,1.11054736842,0.879183333333,"",14.279,"N","N","","",249,"NORMAL",21.721],["CDISCPILOT01","1015","01-701-1015","Placebo",0,"Placebo",0,"2014-01-02","2014-07-02",63,"<65",1,"WHITE",1,"F","Y","","Y","         Week 20",20,140,"2014-05-21","WEEK 20",11,"Leukocytes (GI/L)","WBC",6,"HEM",4.36,5.78,-1.42,3.8,10.7,1.14736842105,0.407476635514,1.52105263158,0.540186915888,"",11.69,"N","N","","",258,"NORMAL",4.36],["CDISCPILOT01","1015","01-701-1015","Placebo",0,"Placebo",0,"2014-01-02","2014-07-02",63,"<65",1,"WHITE",1,"F","Y","","Y","         Week 20",20,140,"2014-05-21","WEEK 20",11,"Lymphocytes (GI/L)","LYM",7,"HEM",1.78,2.11,-0.33,0.8,3,2.225,0.593333333333,2.6375,0.703333333333,"",2.72,"N","N","","",247,"NORMAL",1.78],["CDISCPILOT01","1015","01-701-1015","Placebo",0,"Placebo",0,"2014-01-02","2014-07-02",63,"<65",1,"WHITE",1,"F","Y","","Y","         Week 20",20,140,"2014-05-21","WEEK 20",11,"Monocytes (GI/L)","MONO",8,"HEM",0.28,0.22,0.06,0.12,0.92,2.33333333333,0.304347826087,1.83333333333,0.239130434783,"",1.1,"N","N","","",251,"NORMAL",0.28],["CDISCPILOT01","1015","01-701-1015","Placebo",0,"Placebo",0,"2014-01-02","2014-07-02",63,"<65",1,"WHITE",1,"F","Y","","Y","         Week 20",20,140,"2014-05-21","WEEK 20",11,"Eosinophils (GI/L)","EOS",9,"HEM",0.06,0.13,-0.07,null,0.57,null,0.105263157895,null,0.228070175439,"Y",0.795,"N","N","","",241,"NORMAL",0.06],["CDISCPILOT01","1015","01-701-1015","Placebo",0,"Placebo",0,"2014-01-02","2014-07-02",63,"<65",1,"WHITE",1,"F","Y","","Y","         Week 20",20,140,"2014-05-21","WEEK 20",11,"Basophils (GI/L)","BASO",10,"HEM",0.03,0.05,-0.02,null,0.2,null,0.15,null,0.25,"",0.27,"N","N","","",233,"NORMAL",0.03],["CDISCPILOT01","1015","01-701-1015","Placebo",0,"Placebo",0,"2014-01-02","2014-07-02",63,"<65",1,"WHITE",1,"F","Y","","Y","         Week 20",20,140,"2014-05-21","WEEK 20",11,"Platelet (GI/L)","PLAT",11,"HEM",233,266,-33,130,394,1.79230769231,0.591370558376,2.04615384615,0.675126903553,"Y",358,"N","N","","",254,"NORMAL",233],["CDISCPILOT01","1015","01-701-1015","Placebo",0,"Placebo",0,"2014-01-02","2014-07-02",63,"<65",1,"WHITE",1,"F","Y","","Y","         Week 20",20,140,"2014-05-21","WEEK 20",11,"Erythrocytes (TI/L)","RBC",12,"HEM",4.9,5.3,-0.4,3.9,5.5,1.25641025641,0.890909090909,1.35897435897,0.963636363636,"Y",3.35,"N","N","","",256,"NORMAL",4.9],["CDISCPILOT01","1015","01-701-1015","Placebo",0,"Placebo",0,"2014-01-02","2014-07-02",63,"<65",1,"WHITE",1,"F","Y","","Y","         Week 20",20,140,"2014-05-21","WEEK 20",11,"Hemoglobin (mmol/L) change from previous visit, relative to normal range","_HGB",101,"HEM",-0.2,null,null,null,null,null,null,null,null,"",6.21278,"N","","","",245,"NORMAL",8.50222],["CDISCPILOT01","1015","01-701-1015","Placebo",0,"Placebo",0,"2014-01-02","2014-07-02",63,"<65",1,"WHITE",1,"F","Y","","Y","         Week 20",20,140,"2014-05-21","WEEK 20",11,"Hematocrit change from previous visit, relative to normal range","_HCT",102,"HEM",-0.1,null,null,null,null,null,null,null,null,"",0.32,"N","","","",244,"NORMAL",0.4],["CDISCPILOT01","1015","01-701-1015","Placebo",0,"Placebo",0,"2014-01-02","2014-07-02",63,"<65",1,"WHITE",1,"F","Y","","Y","         Week 20",20,140,"2014-05-21","WEEK 20",11,"Ery. Mean Corpuscular Volume (fL) change from previous visit, relative to normal range","_MCV",103,"HEM",0.1,null,null,null,null,null,null,null,null,"",70,"N","","","",250,"NORMAL",80],["CDISCPILOT01","1015","01-701-1015","Placebo",0,"Placebo",0,"2014-01-02","2014-07-02",63,"<65",1,"WHITE",1,"F","Y","","Y","         Week 20",20,140,"2014-05-21","WEEK 20",11,"Ery. Mean Corpuscular Hemoglobin (fmol(Fe)) change from previous visit, relative to normal range","_MCH",104,"HEM",0.2,null,null,null,null,null,null,null,null,"Y",1.41232,"N","","","",248,"NORMAL",1.73768],["CDISCPILOT01","1015","01-701-1015","Placebo",0,"Placebo",0,"2014-01-02","2014-07-02",63,"<65",1,"WHITE",1,"F","Y","","Y","         Week 20",20,140,"2014-05-21","WEEK 20",11,"Ery. Mean Corpuscular HGB Concentration (mmol/L) change from previous visit, relative to normal rang","_MCHC",105,"HEM",0,null,null,null,null,null,null,null,null,"",14.279,"N","","","",249,"NORMAL",21.721],["CDISCPILOT01","1015","01-701-1015","Placebo",0,"Placebo",0,"2014-01-02","2014-07-02",63,"<65",1,"WHITE",1,"F","Y","","Y","         Week 20",20,140,"2014-05-21","WEEK 20",11,"Leukocytes (GI/L) change from previous visit, relative to normal range","_WBC",106,"HEM",-0.4,null,null,null,null,null,null,null,null,"",11.69,"N","","","",258,"NORMAL",4.36],["CDISCPILOT01","1015","01-701-1015","Placebo",0,"Placebo",0,"2014-01-02","2014-07-02",63,"<65",1,"WHITE",1,"F","Y","","Y","         Week 20",20,140,"2014-05-21","WEEK 20",11,"Lymphocytes (GI/L) change from previous visit, relative to normal range","_LYM",107,"HEM",-0.2,null,null,null,null,null,null,null,null,"",2.72,"N","","","",247,"NORMAL",1.78],["CDISCPILOT01","1015","01-701-1015","Placebo",0,"Placebo",0,"2014-01-02","2014-07-02",63,"<65",1,"WHITE",1,"F","Y","","Y","         Week 20",20,140,"2014-05-21","WEEK 20",11,"Monocytes (GI/L) change from previous visit, relative to normal range","_MONO",108,"HEM",-0.1,null,null,null,null,null,null,null,null,"",1.1,"N","","","",251,"NORMAL",0.28],["CDISCPILOT01","1015","01-701-1015","Placebo",0,"Placebo",0,"2014-01-02","2014-07-02",63,"<65",1,"WHITE",1,"F","Y","","Y","         Week 20",20,140,"2014-05-21","WEEK 20",11,"Eosinophils (GI/L) change from previous visit, relative to normal range","_EOS",109,"HEM",-0.1,null,null,null,null,null,null,null,null,"",0.795,"N","","","",241,"NORMAL",0.06],["CDISCPILOT01","1015","01-701-1015","Placebo",0,"Placebo",0,"2014-01-02","2014-07-02",63,"<65",1,"WHITE",1,"F","Y","","Y","         Week 20",20,140,"2014-05-21","WEEK 20",11,"Basophils (GI/L) change from previous visit, relative to normal range","_BASO",110,"HEM",0,null,null,null,null,null,null,null,null,"",0.27,"N","","","",233,"NORMAL",0.03],["CDISCPILOT01","1015","01-701-1015","Placebo",0,"Placebo",0,"2014-01-02","2014-07-02",63,"<65",1,"WHITE",1,"F","Y","","Y","         Week 20",20,140,"2014-05-21","WEEK 20",11,"Platelet (GI/L) change from previous visit, relative to normal range","_PLAT",111,"HEM",-0.3,null,null,null,null,null,null,null,null,"",358,"N","","","",254,"NORMAL",233],["CDISCPILOT01","1015","01-701-1015","Placebo",0,"Placebo",0,"2014-01-02","2014-07-02",63,"<65",1,"WHITE",1,"F","Y","","Y","         Week 20",20,140,"2014-05-21","WEEK 20",11,"Erythrocytes (TI/L) change from previous visit, relative to normal range","_RBC",112,"HEM",-0.4,null,null,null,null,null,null,null,null,"",3.35,"N","","","",256,"NORMAL",4.9],["CDISCPILOT01","1015","01-701-1015","Placebo",0,"Placebo",0,"2014-01-02","2014-07-02",63,"<65",1,"WHITE",1,"F","Y","","Y","         Week 24",24,168,"2014-06-18","WEEK 24",12,"Hemoglobin (mmol/L)","HGB",1,"HEM",8.6884,8.87458,-0.18618,7.14,9.81,1.2168627451,0.885667686035,1.24293837535,0.904646279307,"",6.0266,"N","N","","Y",276,"NORMAL",8.6884],["CDISCPILOT01","1015","01-701-1015","Placebo",0,"Placebo",0,"2014-01-02","2014-07-02",63,"<65",1,"WHITE",1,"F","Y","","Y","End of Treatment",99,168,"2014-06-18","WEEK 24",12,"Hemoglobin (mmol/L)","HGB",1,"HEM",8.6884,8.87458,-0.18618,7.14,9.81,1.2168627451,0.885667686035,1.24293837535,0.904646279307,"",6.0266,"N","N","","Y",276,"NORMAL",8.6884],["CDISCPILOT01","1015","01-701-1015","Placebo",0,"Placebo",0,"2014-01-02","2014-07-02",63,"<65",1,"WHITE",1,"F","Y","","Y","         Week 24",24,168,"2014-06-18","WEEK 24",12,"Hematocrit","HCT",2,"HEM",0.44,0.42,0.02,0.34,0.48,1.29411764706,0.916666666667,1.23529411765,0.875,"",0.28,"N","N","","Y",275,"NORMAL",0.44],["CDISCPILOT01","1015","01-701-1015","Placebo",0,"Placebo",0,"2014-01-02","2014-07-02",63,"<65",1,"WHITE",1,"F","Y","","Y","End of Treatment",99,168,"2014-06-18","WEEK 24",12,"Hematocrit","HCT",2,"HEM",0.44,0.42,0.02,0.34,0.48,1.29411764706,0.916666666667,1.23529411765,0.875,"",0.28,"N","N","","Y",275,"NORMAL",0.44],["CDISCPILOT01","1015","01-701-1015","Placebo",0,"Placebo",0,"2014-01-02","2014-07-02",63,"<65",1,"WHITE",1,"F","Y","","Y","         Week 24",24,168,"2014-06-18","WEEK 24",12,"Ery. Mean Corpuscular Volume (fL)","MCV",3,"HEM",82,80,2,80,100,1.025,0.82,1,0.8,"",68,"N","N","","Y",282,"NORMAL",82],["CDISCPILOT01","1015","01-701-1015","Placebo",0,"Placebo",0,"2014-01-02","2014-07-02",63,"<65",1,"WHITE",1,"F","Y","","Y","End of Treatment",99,168,"2014-06-18","WEEK 24",12,"Ery. Mean Corpuscular Volume (fL)","MCV",3,"HEM",82,80,2,80,100,1.025,0.82,1,0.8,"",68,"N","N","","Y",282,"NORMAL",82],["CDISCPILOT01","1015","01-701-1015","Placebo",0,"Placebo",0,"2014-01-02","2014-07-02",63,"<65",1,"WHITE",1,"F","Y","","Y","         Week 24",24,168,"2014-06-18","WEEK 24",12,"Ery. Mean Corpuscular Hemoglobin (fmol(Fe))","MCH",4,"HEM",1.67562,1.67562,0,1.6,2.1,1.0472625,0.797914285714,1.0472625,0.797914285714,"",1.47438,"N","N","","Y",280,"NORMAL",1.67562],["CDISCPILOT01","1015","01-701-1015","Placebo",0,"Placebo",0,"2014-01-02","2014-07-02",63,"<65",1,"WHITE",1,"F","Y","","Y","End of Treatment",99,168,"2014-06-18","WEEK 24",12,"Ery. Mean Corpuscular Hemoglobin (fmol(Fe))","MCH",4,"HEM",1.67562,1.67562,0,1.6,2.1,1.0472625,0.797914285714,1.0472625,0.797914285714,"",1.47438,"N","N","","Y",280,"NORMAL",1.67562],["CDISCPILOT01","1015","01-701-1015","Placebo",0,"Placebo",0,"2014-01-02","2014-07-02",63,"<65",1,"WHITE",1,"F","Y","","Y","         Week 24",24,168,"2014-06-18","WEEK 24",12,"Ery. Mean Corpuscular HGB Concentration (mmol/L)","MCHC",5,"HEM",19.8592,21.1004,-1.2412,19,24,1.04522105263,0.827466666667,1.11054736842,0.879183333333,"Y",16.1408,"N","N","","Y",281,"NORMAL",19.8592],["CDISCPILOT01","1015","01-701-1015","Placebo",0,"Placebo",0,"2014-01-02","2014-07-02",63,"<65",1,"WHITE",1,"F","Y","","Y","End of Treatment",99,168,"2014-06-18","WEEK 24",12,"Ery. Mean Corpuscular HGB Concentration (mmol/L)","MCHC",5,"HEM",19.8592,21.1004,-1.2412,19,24,1.04522105263,0.827466666667,1.11054736842,0.879183333333,"Y",16.1408,"N","N","","Y",281,"NORMAL",19.8592],["CDISCPILOT01","1015","01-701-1015","Placebo",0,"Placebo",0,"2014-01-02","2014-07-02",63,"<65",1,"WHITE",1,"F","Y","","Y","         Week 24",24,168,"2014-06-18","WEEK 24",12,"Leukocytes (GI/L)","WBC",6,"HEM",7.23,5.78,1.45,3.8,10.7,1.90263157895,0.675700934579,1.52105263158,0.540186915888,"",8.82,"N","N","","Y",293,"NORMAL",7.23],["CDISCPILOT01","1015","01-701-1015","Placebo",0,"Placebo",0,"2014-01-02","2014-07-02",63,"<65",1,"WHITE",1,"F","Y","","Y","End of Treatment",99,168,"2014-06-18","WEEK 24",12,"Leukocytes (GI/L)","WBC",6,"HEM",7.23,5.78,1.45,3.8,10.7,1.90263157895,0.675700934579,1.52105263158,0.540186915888,"",8.82,"N","N","","Y",293,"NORMAL",7.23],["CDISCPILOT01","1015","01-701-1015","Placebo",0,"Placebo",0,"2014-01-02","2014-07-02",63,"<65",1,"WHITE",1,"F","Y","","Y","         Week 24",24,168,"2014-06-18","WEEK 24",12,"Lymphocytes (GI/L)","LYM",7,"HEM",2.55,2.11,0.44,0.8,3,3.1875,0.85,2.6375,0.703333333333,"",2.15,"N","N","","Y",279,"NORMAL",2.55],["CDISCPILOT01","1015","01-701-1015","Placebo",0,"Placebo",0,"2014-01-02","2014-07-02",63,"<65",1,"WHITE",1,"F","Y","","Y","End of Treatment",99,168,"2014-06-18","WEEK 24",12,"Lymphocytes (GI/L)","LYM",7,"HEM",2.55,2.11,0.44,0.8,3,3.1875,0.85,2.6375,0.703333333333,"",2.15,"N","N","","Y",279,"NORMAL",2.55],["CDISCPILOT01","1015","01-701-1015","Placebo",0,"Placebo",0,"2014-01-02","2014-07-02",63,"<65",1,"WHITE",1,"F","Y","","Y","         Week 24",24,168,"2014-06-18","WEEK 24",12,"Monocytes (GI/L)","MONO",8,"HEM",0.31,0.22,0.09,0.12,0.92,2.58333333333,0.336956521739,1.83333333333,0.239130434783,"",1.07,"N","N","","Y",283,"NORMAL",0.31],["CDISCPILOT01","1015","01-701-1015","Placebo",0,"Placebo",0,"2014-01-02","2014-07-02",63,"<65",1,"WHITE",1,"F","Y","","Y","End of Treatment",99,168,"2014-06-18","WEEK 24",12,"Monocytes (GI/L)","MONO",8,"HEM",0.31,0.22,0.09,0.12,0.92,2.58333333333,0.336956521739,1.83333333333,0.239130434783,"",1.07,"N","N","","Y",283,"NORMAL",0.31],["CDISCPILOT01","1015","01-701-1015","Placebo",0,"Placebo",0,"2014-01-02","2014-07-02",63,"<65",1,"WHITE",1,"F","Y","","Y","         Week 24",24,168,"2014-06-18","WEEK 24",12,"Eosinophils (GI/L)","EOS",9,"HEM",0.09,0.13,-0.04,null,0.57,null,0.157894736842,null,0.228070175439,"",0.765,"N","N","","Y",272,"NORMAL",0.09],["CDISCPILOT01","1015","01-701-1015","Placebo",0,"Placebo",0,"2014-01-02","2014-07-02",63,"<65",1,"WHITE",1,"F","Y","","Y","End of Treatment",99,168,"2014-06-18","WEEK 24",12,"Eosinophils (GI/L)","EOS",9,"HEM",0.09,0.13,-0.04,null,0.57,null,0.157894736842,null,0.228070175439,"",0.765,"N","N","","Y",272,"NORMAL",0.09],["CDISCPILOT01","1015","01-701-1015","Placebo",0,"Placebo",0,"2014-01-02","2014-07-02",63,"<65",1,"WHITE",1,"F","Y","","Y","         Week 24",24,168,"2014-06-18","WEEK 24",12,"Basophils (GI/L)","BASO",10,"HEM",0.04,0.05,-0.01,null,0.2,null,0.2,null,0.25,"",0.26,"N","N","","Y",263,"NORMAL",0.04],["CDISCPILOT01","1015","01-701-1015","Placebo",0,"Placebo",0,"2014-01-02","2014-07-02",63,"<65",1,"WHITE",1,"F","Y","","Y","End of Treatment",99,168,"2014-06-18","WEEK 24",12,"Basophils (GI/L)","BASO",10,"HEM",0.04,0.05,-0.01,null,0.2,null,0.2,null,0.25,"",0.26,"N","N","","Y",263,"NORMAL",0.04],["CDISCPILOT01","1015","01-701-1015","Placebo",0,"Placebo",0,"2014-01-02","2014-07-02",63,"<65",1,"WHITE",1,"F","Y","","Y","         Week 24",24,168,"2014-06-18","WEEK 24",12,"Platelet (GI/L)","PLAT",11,"HEM",259,266,-7,130,394,1.99230769231,0.657360406091,2.04615384615,0.675126903553,"",332,"N","N","","Y",287,"NORMAL",259],["CDISCPILOT01","1015","01-701-1015","Placebo",0,"Placebo",0,"2014-01-02","2014-07-02",63,"<65",1,"WHITE",1,"F","Y","","Y","End of Treatment",99,168,"2014-06-18","WEEK 24",12,"Platelet (GI/L)","PLAT",11,"HEM",259,266,-7,130,394,1.99230769231,0.657360406091,2.04615384615,0.675126903553,"",332,"N","N","","Y",287,"NORMAL",259],["CDISCPILOT01","1015","01-701-1015","Placebo",0,"Placebo",0,"2014-01-02","2014-07-02",63,"<65",1,"WHITE",1,"F","Y","","Y","         Week 24",24,168,"2014-06-18","WEEK 24",12,"Erythrocytes (TI/L)","RBC",12,"HEM",5.3,5.3,0,3.9,5.5,1.35897435897,0.963636363636,1.35897435897,0.963636363636,"",3.35,"N","N","","Y",289,"NORMAL",5.3],["CDISCPILOT01","1015","01-701-1015","Placebo",0,"Placebo",0,"2014-01-02","2014-07-02",63,"<65",1,"WHITE",1,"F","Y","","Y","End of Treatment",99,168,"2014-06-18","WEEK 24",12,"Erythrocytes (TI/L)","RBC",12,"HEM",5.3,5.3,0,3.9,5.5,1.35897435897,0.963636363636,1.35897435897,0.963636363636,"",3.35,"N","N","","Y",289,"NORMAL",5.3],["CDISCPILOT01","1015","01-701-1015","Placebo",0,"Placebo",0,"2014-01-02","2014-07-02",63,"<65",1,"WHITE",1,"F","Y","","Y","         Week 24",24,168,"2014-06-18","WEEK 24",12,"Hemoglobin (mmol/L) change from previous visit, relative to normal range","_HGB",101,"HEM",0.1,null,null,null,null,null,null,null,null,"",6.0266,"N","","","Y",276,"NORMAL",8.6884],["CDISCPILOT01","1015","01-701-1015","Placebo",0,"Placebo",0,"2014-01-02","2014-07-02",63,"<65",1,"WHITE",1,"F","Y","","Y","End of Treatment",99,168,"2014-06-18","WEEK 24",12,"Hemoglobin (mmol/L) change from previous visit, relative to normal range","_HGB",101,"HEM",0.1,null,null,null,null,null,null,null,null,"",6.0266,"N","","","Y",276,"NORMAL",8.6884],["CDISCPILOT01","1015","01-701-1015","Placebo",0,"Placebo",0,"2014-01-02","2014-07-02",63,"<65",1,"WHITE",1,"F","Y","","Y","         Week 24",24,168,"2014-06-18","WEEK 24",12,"Hematocrit change from previous visit, relative to normal range","_HCT",102,"HEM",0.6,null,null,null,null,null,null,null,null,"",0.28,"N","","","Y",275,"NORMAL",0.44],["CDISCPILOT01","1015","01-701-1015","Placebo",0,"Placebo",0,"2014-01-02","2014-07-02",63,"<65",1,"WHITE",1,"F","Y","","Y","End of Treatment",99,168,"2014-06-18","WEEK 24",12,"Hematocrit change from previous visit, relative to normal range","_HCT",102,"HEM",0.6,null,null,null,null,null,null,null,null,"",0.28,"N","","","Y",275,"NORMAL",0.44],["CDISCPILOT01","1015","01-701-1015","Placebo",0,"Placebo",0,"2014-01-02","2014-07-02",63,"<65",1,"WHITE",1,"F","Y","","Y","         Week 24",24,168,"2014-06-18","WEEK 24",12,"Ery. Mean Corpuscular Volume (fL) change from previous visit, relative to normal range","_MCV",103,"HEM",0.2,null,null,null,null,null,null,null,null,"",68,"N","","","Y",282,"NORMAL",82],["CDISCPILOT01","1015","01-701-1015","Placebo",0,"Placebo",0,"2014-01-02","2014-07-02",63,"<65",1,"WHITE",1,"F","Y","","Y","End of Treatment",99,168,"2014-06-18","WEEK 24",12,"Ery. Mean Corpuscular Volume (fL) change from previous visit, relative to normal range","_MCV",103,"HEM",0.2,null,null,null,null,null,null,null,null,"",68,"N","","","Y",282,"NORMAL",82],["CDISCPILOT01","1015","01-701-1015","Placebo",0,"Placebo",0,"2014-01-02","2014-07-02",63,"<65",1,"WHITE",1,"F","Y","","Y","         Week 24",24,168,"2014-06-18","WEEK 24",12,"Ery. Mean Corpuscular Hemoglobin (fmol(Fe)) change from previous visit, relative to normal range","_MCH",104,"HEM",-0.2,null,null,null,null,null,null,null,null,"",1.47438,"N","","","Y",280,"NORMAL",1.67562],["CDISCPILOT01","1015","01-701-1015","Placebo",0,"Placebo",0,"2014-01-02","2014-07-02",63,"<65",1,"WHITE",1,"F","Y","","Y","End of Treatment",99,168,"2014-06-18","WEEK 24",12,"Ery. Mean Corpuscular Hemoglobin (fmol(Fe)) change from previous visit, relative to normal range","_MCH",104,"HEM",-0.2,null,null,null,null,null,null,null,null,"",1.47438,"N","","","Y",280,"NORMAL",1.67562],["CDISCPILOT01","1015","01-701-1015","Placebo",0,"Placebo",0,"2014-01-02","2014-07-02",63,"<65",1,"WHITE",1,"F","Y","","Y","         Week 24",24,168,"2014-06-18","WEEK 24",12,"Ery. Mean Corpuscular HGB Concentration (mmol/L) change from previous visit, relative to normal rang","_MCHC",105,"HEM",-0.7,null,null,null,null,null,null,null,null,"Y",16.1408,"N","","","Y",281,"NORMAL",19.8592],["CDISCPILOT01","1015","01-701-1015","Placebo",0,"Placebo",0,"2014-01-02","2014-07-02",63,"<65",1,"WHITE",1,"F","Y","","Y","End of Treatment",99,168,"2014-06-18","WEEK 24",12,"Ery. Mean Corpuscular HGB Concentration (mmol/L) change from previous visit, relative to normal rang","_MCHC",105,"HEM",-0.7,null,null,null,null,null,null,null,null,"Y",16.1408,"N","","","Y",281,"NORMAL",19.8592],["CDISCPILOT01","1015","01-701-1015","Placebo",0,"Placebo",0,"2014-01-02","2014-07-02",63,"<65",1,"WHITE",1,"F","Y","","Y","         Week 24",24,168,"2014-06-18","WEEK 24",12,"Leukocytes (GI/L) change from previous visit, relative to normal range","_WBC",106,"HEM",0.8,null,null,null,null,null,null,null,null,"Y",8.82,"N","","","Y",293,"NORMAL",7.23],["CDISCPILOT01","1015","01-701-1015","Placebo",0,"Placebo",0,"2014-01-02","2014-07-02",63,"<65",1,"WHITE",1,"F","Y","","Y","End of Treatment",99,168,"2014-06-18","WEEK 24",12,"Leukocytes (GI/L) change from previous visit, relative to normal range","_WBC",106,"HEM",0.8,null,null,null,null,null,null,null,null,"Y",8.82,"N","","","Y",293,"NORMAL",7.23],["CDISCPILOT01","1015","01-701-1015","Placebo",0,"Placebo",0,"2014-01-02","2014-07-02",63,"<65",1,"WHITE",1,"F","Y","","Y","         Week 24",24,168,"2014-06-18","WEEK 24",12,"Lymphocytes (GI/L) change from previous visit, relative to normal range","_LYM",107,"HEM",0.7,null,null,null,null,null,null,null,null,"Y",2.15,"N","","","Y",279,"NORMAL",2.55],["CDISCPILOT01","1015","01-701-1015","Placebo",0,"Placebo",0,"2014-01-02","2014-07-02",63,"<65",1,"WHITE",1,"F","Y","","Y","End of Treatment",99,168,"2014-06-18","WEEK 24",12,"Lymphocytes (GI/L) change from previous visit, relative to normal range","_LYM",107,"HEM",0.7,null,null,null,null,null,null,null,null,"Y",2.15,"N","","","Y",279,"NORMAL",2.55],["CDISCPILOT01","1015","01-701-1015","Placebo",0,"Placebo",0,"2014-01-02","2014-07-02",63,"<65",1,"WHITE",1,"F","Y","","Y","         Week 24",24,168,"2014-06-18","WEEK 24",12,"Monocytes (GI/L) change from previous visit, relative to normal range","_MONO",108,"HEM",0.1,null,null,null,null,null,null,null,null,"",1.07,"N","","","Y",283,"NORMAL",0.31],["CDISCPILOT01","1015","01-701-1015","Placebo",0,"Placebo",0,"2014-01-02","2014-07-02",63,"<65",1,"WHITE",1,"F","Y","","Y","End of Treatment",99,168,"2014-06-18","WEEK 24",12,"Monocytes (GI/L) change from previous visit, relative to normal range","_MONO",108,"HEM",0.1,null,null,null,null,null,null,null,null,"",1.07,"N","","","Y",283,"NORMAL",0.31],["CDISCPILOT01","1015","01-701-1015","Placebo",0,"Placebo",0,"2014-01-02","2014-07-02",63,"<65",1,"WHITE",1,"F","Y","","Y","         Week 24",24,168,"2014-06-18","WEEK 24",12,"Eosinophils (GI/L) change from previous visit, relative to normal range","_EOS",109,"HEM",0.1,null,null,null,null,null,null,null,null,"",0.765,"N","","","Y",272,"NORMAL",0.09],["CDISCPILOT01","1015","01-701-1015","Placebo",0,"Placebo",0,"2014-01-02","2014-07-02",63,"<65",1,"WHITE",1,"F","Y","","Y","End of Treatment",99,168,"2014-06-18","WEEK 24",12,"Eosinophils (GI/L) change from previous visit, relative to normal range","_EOS",109,"HEM",0.1,null,null,null,null,null,null,null,null,"",0.765,"N","","","Y",272,"NORMAL",0.09],["CDISCPILOT01","1015","01-701-1015","Placebo",0,"Placebo",0,"2014-01-02","2014-07-02",63,"<65",1,"WHITE",1,"F","Y","","Y","         Week 24",24,168,"2014-06-18","WEEK 24",12,"Basophils (GI/L) change from previous visit, relative to normal range","_BASO",110,"HEM",0.1,null,null,null,null,null,null,null,null,"",0.26,"N","","","Y",263,"NORMAL",0.04],["CDISCPILOT01","1015","01-701-1015","Placebo",0,"Placebo",0,"2014-01-02","2014-07-02",63,"<65",1,"WHITE",1,"F","Y","","Y","End of Treatment",99,168,"2014-06-18","WEEK 24",12,"Basophils (GI/L) change from previous visit, relative to normal range","_BASO",110,"HEM",0.1,null,null,null,null,null,null,null,null,"",0.26,"N","","","Y",263,"NORMAL",0.04],["CDISCPILOT01","1015","01-701-1015","Placebo",0,"Placebo",0,"2014-01-02","2014-07-02",63,"<65",1,"WHITE",1,"F","Y","","Y","         Week 24",24,168,"2014-06-18","WEEK 24",12,"Platelet (GI/L) change from previous visit, relative to normal range","_PLAT",111,"HEM",0.2,null,null,null,null,null,null,null,null,"",332,"N","","","Y",287,"NORMAL",259],["CDISCPILOT01","1015","01-701-1015","Placebo",0,"Placebo",0,"2014-01-02","2014-07-02",63,"<65",1,"WHITE",1,"F","Y","","Y","End of Treatment",99,168,"2014-06-18","WEEK 24",12,"Platelet (GI/L) change from previous visit, relative to normal range","_PLAT",111,"HEM",0.2,null,null,null,null,null,null,null,null,"",332,"N","","","Y",287,"NORMAL",259],["CDISCPILOT01","1015","01-701-1015","Placebo",0,"Placebo",0,"2014-01-02","2014-07-02",63,"<65",1,"WHITE",1,"F","Y","","Y","         Week 24",24,168,"2014-06-18","WEEK 24",12,"Erythrocytes (TI/L) change from previous visit, relative to normal range","_RBC",112,"HEM",0.5,null,null,null,null,null,null,null,null,"Y",3.35,"N","","","Y",289,"NORMAL",5.3],["CDISCPILOT01","1015","01-701-1015","Placebo",0,"Placebo",0,"2014-01-02","2014-07-02",63,"<65",1,"WHITE",1,"F","Y","","Y","End of Treatment",99,168,"2014-06-18","WEEK 24",12,"Erythrocytes (TI/L) change from previous visit, relative to normal range","_RBC",112,"HEM",0.5,null,null,null,null,null,null,null,null,"Y",3.35,"N","","","Y",289,"NORMAL",5.3],["CDISCPILOT01","1015","01-701-1015","Placebo",0,"Placebo",0,"2014-01-02","2014-07-02",63,"<65",1,"WHITE",1,"F","Y","","Y","         Week 26",26,182,"2014-07-02","WEEK 26",13,"Hemoglobin (mmol/L)","HGB",1,"HEM",8.87458,8.87458,0,7.14,9.81,1.24293837535,0.904646279307,1.24293837535,0.904646279307,"",5.84042,"N","N","","",310,"NORMAL",8.87458],["CDISCPILOT01","1015","01-701-1015","Placebo",0,"Placebo",0,"2014-01-02","2014-07-02",63,"<65",1,"WHITE",1,"F","Y","","Y","         Week 26",26,182,"2014-07-02","WEEK 26",13,"Hematocrit","HCT",2,"HEM",0.45,0.42,0.03,0.34,0.48,1.32352941176,0.9375,1.23529411765,0.875,"",0.28,"N","N","","",309,"NORMAL",0.45],["CDISCPILOT01","1015","01-701-1015","Placebo",0,"Placebo",0,"2014-01-02","2014-07-02",63,"<65",1,"WHITE",1,"F","Y","","Y","         Week 26",26,182,"2014-07-02","WEEK 26",13,"Ery. Mean Corpuscular Volume (fL)","MCV",3,"HEM",84,80,4,80,100,1.05,0.84,1,0.8,"",66,"N","N","","",315,"NORMAL",84],["CDISCPILOT01","1015","01-701-1015","Placebo",0,"Placebo",0,"2014-01-02","2014-07-02",63,"<65",1,"WHITE",1,"F","Y","","Y","         Week 26",26,182,"2014-07-02","WEEK 26",13,"Ery. Mean Corpuscular Hemoglobin (fmol(Fe))","MCH",4,"HEM",1.67562,1.67562,0,1.6,2.1,1.0472625,0.797914285714,1.0472625,0.797914285714,"",1.47438,"N","N","","",313,"NORMAL",1.67562],["CDISCPILOT01","1015","01-701-1015","Placebo",0,"Placebo",0,"2014-01-02","2014-07-02",63,"<65",1,"WHITE",1,"F","Y","","Y","         Week 26",26,182,"2014-07-02","WEEK 26",13,"Ery. Mean Corpuscular HGB Concentration (mmol/L)","MCHC",5,"HEM",19.8592,21.1004,-1.2412,19,24,1.04522105263,0.827466666667,1.11054736842,0.879183333333,"",16.1408,"N","N","","",314,"NORMAL",19.8592],["CDISCPILOT01","1015","01-701-1015","Placebo",0,"Placebo",0,"2014-01-02","2014-07-02",63,"<65",1,"WHITE",1,"F","Y","","Y","         Week 26",26,182,"2014-07-02","WEEK 26",13,"Leukocytes (GI/L)","WBC",6,"HEM",5.43,5.78,-0.35,3.8,10.7,1.42894736842,0.507476635514,1.52105263158,0.540186915888,"",10.62,"N","N","","",323,"NORMAL",5.43],["CDISCPILOT01","1015","01-701-1015","Placebo",0,"Placebo",0,"2014-01-02","2014-07-02",63,"<65",1,"WHITE",1,"F","Y","","Y","         Week 26",26,182,"2014-07-02","WEEK 26",13,"Lymphocytes (GI/L)","LYM",7,"HEM",2.03,2.11,-0.08,0.8,3,2.5375,0.676666666667,2.6375,0.703333333333,"",2.47,"N","N","","",312,"NORMAL",2.03],["CDISCPILOT01","1015","01-701-1015","Placebo",0,"Placebo",0,"2014-01-02","2014-07-02",63,"<65",1,"WHITE",1,"F","Y","","Y","         Week 26",26,182,"2014-07-02","WEEK 26",13,"Monocytes (GI/L)","MONO",8,"HEM",0.31,0.22,0.09,0.12,0.92,2.58333333333,0.336956521739,1.83333333333,0.239130434783,"",1.07,"N","N","","",316,"NORMAL",0.31],["CDISCPILOT01","1015","01-701-1015","Placebo",0,"Placebo",0,"2014-01-02","2014-07-02",63,"<65",1,"WHITE",1,"F","Y","","Y","         Week 26",26,182,"2014-07-02","WEEK 26",13,"Eosinophils (GI/L)","EOS",9,"HEM",0.07,0.13,-0.06,null,0.57,null,0.122807017544,null,0.228070175439,"",0.785,"N","N","","",306,"NORMAL",0.07],["CDISCPILOT01","1015","01-701-1015","Placebo",0,"Placebo",0,"2014-01-02","2014-07-02",63,"<65",1,"WHITE",1,"F","Y","","Y","         Week 26",26,182,"2014-07-02","WEEK 26",13,"Basophils (GI/L)","BASO",10,"HEM",0.03,0.05,-0.02,null,0.2,null,0.15,null,0.25,"",0.27,"N","N","","",298,"NORMAL",0.03],["CDISCPILOT01","1015","01-701-1015","Placebo",0,"Placebo",0,"2014-01-02","2014-07-02",63,"<65",1,"WHITE",1,"F","Y","","Y","         Week 26",26,182,"2014-07-02","WEEK 26",13,"Platelet (GI/L)","PLAT",11,"HEM",300,266,34,130,394,2.30769230769,0.761421319797,2.04615384615,0.675126903553,"",291,"N","N","","",319,"NORMAL",300],["CDISCPILOT01","1015","01-701-1015","Placebo",0,"Placebo",0,"2014-01-02","2014-07-02",63,"<65",1,"WHITE",1,"F","Y","","Y","         Week 26",26,182,"2014-07-02","WEEK 26",13,"Erythrocytes (TI/L)","RBC",12,"HEM",5.4,5.3,0.1,3.9,5.5,1.38461538462,0.981818181818,1.35897435897,0.963636363636,"",3.45,"N","N","","",321,"NORMAL",5.4],["CDISCPILOT01","1015","01-701-1015","Placebo",0,"Placebo",0,"2014-01-02","2014-07-02",63,"<65",1,"WHITE",1,"F","Y","","Y","         Week 26",26,182,"2014-07-02","WEEK 26",13,"Hemoglobin (mmol/L) change from previous visit, relative to normal range","_HGB",101,"HEM",0.1,null,null,null,null,null,null,null,null,"",5.84042,"N","","","",310,"NORMAL",8.87458],["CDISCPILOT01","1015","01-701-1015","Placebo",0,"Placebo",0,"2014-01-02","2014-07-02",63,"<65",1,"WHITE",1,"F","Y","","Y","         Week 26",26,182,"2014-07-02","WEEK 26",13,"Hematocrit change from previous visit, relative to normal range","_HCT",102,"HEM",0.1,null,null,null,null,null,null,null,null,"",0.28,"N","","","",309,"NORMAL",0.45],["CDISCPILOT01","1015","01-701-1015","Placebo",0,"Placebo",0,"2014-01-02","2014-07-02",63,"<65",1,"WHITE",1,"F","Y","","Y","         Week 26",26,182,"2014-07-02","WEEK 26",13,"Ery. Mean Corpuscular Volume (fL) change from previous visit, relative to normal range","_MCV",103,"HEM",0.2,null,null,null,null,null,null,null,null,"",66,"N","","","",315,"NORMAL",84],["CDISCPILOT01","1015","01-701-1015","Placebo",0,"Placebo",0,"2014-01-02","2014-07-02",63,"<65",1,"WHITE",1,"F","Y","","Y","         Week 26",26,182,"2014-07-02","WEEK 26",13,"Ery. Mean Corpuscular Hemoglobin (fmol(Fe)) change from previous visit, relative to normal range","_MCH",104,"HEM",0,null,null,null,null,null,null,null,null,"",1.47438,"N","","","",313,"NORMAL",1.67562],["CDISCPILOT01","1015","01-701-1015","Placebo",0,"Placebo",0,"2014-01-02","2014-07-02",63,"<65",1,"WHITE",1,"F","Y","","Y","         Week 26",26,182,"2014-07-02","WEEK 26",13,"Ery. Mean Corpuscular HGB Concentration (mmol/L) change from previous visit, relative to normal rang","_MCHC",105,"HEM",0,null,null,null,null,null,null,null,null,"",16.1408,"N","","","",314,"NORMAL",19.8592],["CDISCPILOT01","1015","01-701-1015","Placebo",0,"Placebo",0,"2014-01-02","2014-07-02",63,"<65",1,"WHITE",1,"F","Y","","Y","         Week 26",26,182,"2014-07-02","WEEK 26",13,"Leukocytes (GI/L) change from previous visit, relative to normal range","_WBC",106,"HEM",-0.5,null,null,null,null,null,null,null,null,"",10.62,"N","","","",323,"NORMAL",5.43],["CDISCPILOT01","1015","01-701-1015","Placebo",0,"Placebo",0,"2014-01-02","2014-07-02",63,"<65",1,"WHITE",1,"F","Y","","Y","         Week 26",26,182,"2014-07-02","WEEK 26",13,"Lymphocytes (GI/L) change from previous visit, relative to normal range","_LYM",107,"HEM",-0.5,null,null,null,null,null,null,null,null,"",2.47,"N","","","",312,"NORMAL",2.03],["CDISCPILOT01","1015","01-701-1015","Placebo",0,"Placebo",0,"2014-01-02","2014-07-02",63,"<65",1,"WHITE",1,"F","Y","","Y","         Week 26",26,182,"2014-07-02","WEEK 26",13,"Monocytes (GI/L) change from previous visit, relative to normal range","_MONO",108,"HEM",0,null,null,null,null,null,null,null,null,"",1.07,"N","","","",316,"NORMAL",0.31],["CDISCPILOT01","1015","01-701-1015","Placebo",0,"Placebo",0,"2014-01-02","2014-07-02",63,"<65",1,"WHITE",1,"F","Y","","Y","         Week 26",26,182,"2014-07-02","WEEK 26",13,"Eosinophils (GI/L) change from previous visit, relative to normal range","_EOS",109,"HEM",-0.1,null,null,null,null,null,null,null,null,"",0.785,"N","","","",306,"NORMAL",0.07],["CDISCPILOT01","1015","01-701-1015","Placebo",0,"Placebo",0,"2014-01-02","2014-07-02",63,"<65",1,"WHITE",1,"F","Y","","Y","         Week 26",26,182,"2014-07-02","WEEK 26",13,"Basophils (GI/L) change from previous visit, relative to normal range","_BASO",110,"HEM",-0.1,null,null,null,null,null,null,null,null,"",0.27,"N","","","",298,"NORMAL",0.03],["CDISCPILOT01","1015","01-701-1015","Placebo",0,"Placebo",0,"2014-01-02","2014-07-02",63,"<65",1,"WHITE",1,"F","Y","","Y","         Week 26",26,182,"2014-07-02","WEEK 26",13,"Platelet (GI/L) change from previous visit, relative to normal range","_PLAT",111,"HEM",0.3,null,null,null,null,null,null,null,null,"",291,"N","","","",319,"NORMAL",300],["CDISCPILOT01","1015","01-701-1015","Placebo",0,"Placebo",0,"2014-01-02","2014-07-02",63,"<65",1,"WHITE",1,"F","Y","","Y","         Week 26",26,182,"2014-07-02","WEEK 26",13,"Erythrocytes (TI/L) change from previous visit, relative to normal range","_RBC",112,"HEM",0.1,null,null,null,null,null,null,null,null,"",3.45,"N","","","",321,"NORMAL",5.4],["CDISCPILOT01","1023","01-701-1023","Placebo",0,"Placebo",0,"2012-08-05","2012-09-01",64,"<65",1,"WHITE",1,"M","N","Y","Y","        Baseline",0,-14,"2012-07-22","SCREENING 1",1,"Hemoglobin (mmol/L)","HGB",1,"HEM",10.05372,10.05372,null,7.76,10.55,1.29558247423,0.952959241706,1.29558247423,0.952959241706,"",6.17372,"N","N","Y","",18,"NORMAL",10.05372],["CDISCPILOT01","1023","01-701-1023","Placebo",0,"Placebo",0,"2012-08-05","2012-09-01",64,"<65",1,"WHITE",1,"M","N","Y","Y","        Baseline",0,-14,"2012-07-22","SCREENING 1",1,"Hematocrit","HCT",2,"HEM",0.49,0.49,null,0.37,0.51,1.32432432432,0.960784313725,1.32432432432,0.960784313725,"",0.305,"N","N","Y","",17,"NORMAL",0.49],["CDISCPILOT01","1023","01-701-1023","Placebo",0,"Placebo",0,"2012-08-05","2012-09-01",64,"<65",1,"WHITE",1,"M","N","Y","Y","        Baseline",0,-14,"2012-07-22","SCREENING 1",1,"Ery. Mean Corpuscular Volume (fL)","MCV",3,"HEM",92,92,null,80,100,1.15,0.92,1.15,0.92,"",58,"N","N","Y","",24,"NORMAL",92],["CDISCPILOT01","1023","01-701-1023","Placebo",0,"Placebo",0,"2012-08-05","2012-09-01",64,"<65",1,"WHITE",1,"M","N","Y","Y","        Baseline",0,-14,"2012-07-22","SCREENING 1",1,"Ery. Mean Corpuscular Hemoglobin (fmol(Fe))","MCH",4,"HEM",1.8618,1.8618,null,1.6,2.1,1.163625,0.886571428571,1.163625,0.886571428571,"",1.2882,"N","N","Y","",22,"NORMAL",1.8618],["CDISCPILOT01","1023","01-701-1023","Placebo",0,"Placebo",0,"2012-08-05","2012-09-01",64,"<65",1,"WHITE",1,"M","N","Y","Y","        Baseline",0,-14,"2012-07-22","SCREENING 1",1,"Ery. Mean Corpuscular HGB Concentration (mmol/L)","MCHC",5,"HEM",20.4798,20.4798,null,19,24,1.07788421053,0.853325,1.07788421053,0.853325,"",15.5202,"N","N","Y","",23,"NORMAL",20.4798],["CDISCPILOT01","1023","01-701-1023","Placebo",0,"Placebo",0,"2012-08-05","2012-09-01",64,"<65",1,"WHITE",1,"M","N","Y","Y","        Baseline",0,-14,"2012-07-22","SCREENING 1",1,"Leukocytes (GI/L)","WBC",6,"HEM",8.78,8.78,null,3.8,10.7,2.31052631579,0.820560747664,2.31052631579,0.820560747664,"",7.27,"N","N","Y","",37,"NORMAL",8.78],["CDISCPILOT01","1023","01-701-1023","Placebo",0,"Placebo",0,"2012-08-05","2012-09-01",64,"<65",1,"WHITE",1,"M","N","Y","Y","        Baseline",0,-14,"2012-07-22","SCREENING 1",1,"Lymphocytes (GI/L)","LYM",7,"HEM",1.69,1.69,null,0.8,3,2.1125,0.563333333333,2.1125,0.563333333333,"",2.81,"N","N","Y","",21,"NORMAL",1.69],["CDISCPILOT01","1023","01-701-1023","Placebo",0,"Placebo",0,"2012-08-05","2012-09-01",64,"<65",1,"WHITE",1,"M","N","Y","Y","        Baseline",0,-14,"2012-07-22","SCREENING 1",1,"Monocytes (GI/L)","MONO",8,"HEM",0.61,0.61,null,0.12,0.92,5.08333333333,0.663043478261,5.08333333333,0.663043478261,"",0.77,"N","N","Y","",25,"NORMAL",0.61],["CDISCPILOT01","1023","01-701-1023","Placebo",0,"Placebo",0,"2012-08-05","2012-09-01",64,"<65",1,"WHITE",1,"M","N","Y","Y","        Baseline",0,-14,"2012-07-22","SCREENING 1",1,"Eosinophils (GI/L)","EOS",9,"HEM",0.09,0.09,null,null,0.57,null,0.157894736842,null,0.157894736842,"",0.765,"N","N","Y","",14,"NORMAL",0.09],["CDISCPILOT01","1023","01-701-1023","Placebo",0,"Placebo",0,"2012-08-05","2012-09-01",64,"<65",1,"WHITE",1,"M","N","Y","Y","        Baseline",0,-14,"2012-07-22","SCREENING 1",1,"Basophils (GI/L)","BASO",10,"HEM",0.06,0.06,null,null,0.2,null,0.3,null,0.3,"",0.24,"N","N","Y","",5,"NORMAL",0.06],["CDISCPILOT01","1023","01-701-1023","Placebo",0,"Placebo",0,"2012-08-05","2012-09-01",64,"<65",1,"WHITE",1,"M","N","Y","Y","        Baseline",0,-14,"2012-07-22","SCREENING 1",1,"Platelet (GI/L)","PLAT",11,"HEM",217,217,null,130,394,1.66923076923,0.55076142132,1.66923076923,0.55076142132,"",374,"N","N","Y","",29,"NORMAL",217],["CDISCPILOT01","1023","01-701-1023","Placebo",0,"Placebo",0,"2012-08-05","2012-09-01",64,"<65",1,"WHITE",1,"M","N","Y","Y","        Baseline",0,-14,"2012-07-22","SCREENING 1",1,"Erythrocytes (TI/L)","RBC",12,"HEM",5.3,5.3,null,4,5.8,1.325,0.913793103448,1.325,0.913793103448,"",3.4,"N","N","Y","",31,"NORMAL",5.3],["CDISCPILOT01","1023","01-701-1023","Placebo",0,"Placebo",0,"2012-08-05","2012-09-01",64,"<65",1,"WHITE",1,"M","N","Y","Y","        Baseline",0,-14,"2012-07-22","SCREENING 1",1,"Hemoglobin (mmol/L) change from previous visit, relative to normal range","_HGB",101,"HEM",null,null,null,null,null,null,null,null,null,"",6.17372,"","","","",18,"NORMAL",10.05372],["CDISCPILOT01","1023","01-701-1023","Placebo",0,"Placebo",0,"2012-08-05","2012-09-01",64,"<65",1,"WHITE",1,"M","N","Y","Y","        Baseline",0,-14,"2012-07-22","SCREENING 1",1,"Hematocrit change from previous visit, relative to normal range","_HCT",102,"HEM",null,null,null,null,null,null,null,null,null,"",0.305,"","","","",17,"NORMAL",0.49],["CDISCPILOT01","1023","01-701-1023","Placebo",0,"Placebo",0,"2012-08-05","2012-09-01",64,"<65",1,"WHITE",1,"M","N","Y","Y","        Baseline",0,-14,"2012-07-22","SCREENING 1",1,"Ery. Mean Corpuscular Volume (fL) change from previous visit, relative to normal range","_MCV",103,"HEM",null,null,null,null,null,null,null,null,null,"",58,"","","","",24,"NORMAL",92],["CDISCPILOT01","1023","01-701-1023","Placebo",0,"Placebo",0,"2012-08-05","2012-09-01",64,"<65",1,"WHITE",1,"M","N","Y","Y","        Baseline",0,-14,"2012-07-22","SCREENING 1",1,"Ery. Mean Corpuscular Hemoglobin (fmol(Fe)) change from previous visit, relative to normal range","_MCH",104,"HEM",null,null,null,null,null,null,null,null,null,"",1.2882,"","","","",22,"NORMAL",1.8618],["CDISCPILOT01","1023","01-701-1023","Placebo",0,"Placebo",0,"2012-08-05","2012-09-01",64,"<65",1,"WHITE",1,"M","N","Y","Y","        Baseline",0,-14,"2012-07-22","SCREENING 1",1,"Ery. Mean Corpuscular HGB Concentration (mmol/L) change from previous visit, relative to normal rang","_MCHC",105,"HEM",null,null,null,null,null,null,null,null,null,"",15.5202,"","","","",23,"NORMAL",20.4798],["CDISCPILOT01","1023","01-701-1023","Placebo",0,"Placebo",0,"2012-08-05","2012-09-01",64,"<65",1,"WHITE",1,"M","N","Y","Y","        Baseline",0,-14,"2012-07-22","SCREENING 1",1,"Leukocytes (GI/L) change from previous visit, relative to normal range","_WBC",106,"HEM",null,null,null,null,null,null,null,null,null,"",7.27,"","","","",37,"NORMAL",8.78],["CDISCPILOT01","1023","01-701-1023","Placebo",0,"Placebo",0,"2012-08-05","2012-09-01",64,"<65",1,"WHITE",1,"M","N","Y","Y","        Baseline",0,-14,"2012-07-22","SCREENING 1",1,"Lymphocytes (GI/L) change from previous visit, relative to normal range","_LYM",107,"HEM",null,null,null,null,null,null,null,null,null,"",2.81,"","","","",21,"NORMAL",1.69],["CDISCPILOT01","1023","01-701-1023","Placebo",0,"Placebo",0,"2012-08-05","2012-09-01",64,"<65",1,"WHITE",1,"M","N","Y","Y","        Baseline",0,-14,"2012-07-22","SCREENING 1",1,"Monocytes (GI/L) change from previous visit, relative to normal range","_MONO",108,"HEM",null,null,null,null,null,null,null,null,null,"",0.77,"","","","",25,"NORMAL",0.61],["CDISCPILOT01","1023","01-701-1023","Placebo",0,"Placebo",0,"2012-08-05","2012-09-01",64,"<65",1,"WHITE",1,"M","N","Y","Y","        Baseline",0,-14,"2012-07-22","SCREENING 1",1,"Eosinophils (GI/L) change from previous visit, relative to normal range","_EOS",109,"HEM",null,null,null,null,null,null,null,null,null,"",0.765,"","","","",14,"NORMAL",0.09],["CDISCPILOT01","1023","01-701-1023","Placebo",0,"Placebo",0,"2012-08-05","2012-09-01",64,"<65",1,"WHITE",1,"M","N","Y","Y","        Baseline",0,-14,"2012-07-22","SCREENING 1",1,"Basophils (GI/L) change from previous visit, relative to normal range","_BASO",110,"HEM",null,null,null,null,null,null,null,null,null,"",0.24,"","","","",5,"NORMAL",0.06],["CDISCPILOT01","1023","01-701-1023","Placebo",0,"Placebo",0,"2012-08-05","2012-09-01",64,"<65",1,"WHITE",1,"M","N","Y","Y","        Baseline",0,-14,"2012-07-22","SCREENING 1",1,"Platelet (GI/L) change from previous visit, relative to normal range","_PLAT",111,"HEM",null,null,null,null,null,null,null,null,null,"",374,"","","","",29,"NORMAL",217],["CDISCPILOT01","1023","01-701-1023","Placebo",0,"Placebo",0,"2012-08-05","2012-09-01",64,"<65",1,"WHITE",1,"M","N","Y","Y","        Baseline",0,-14,"2012-07-22","SCREENING 1",1,"Erythrocytes (TI/L) change from previous visit, relative to normal range","_RBC",112,"HEM",null,null,null,null,null,null,null,null,null,"",3.4,"","","","",31,"NORMAL",5.3],["CDISCPILOT01","1023","01-701-1023","Placebo",0,"Placebo",0,"2012-08-05","2012-09-01",64,"<65",1,"WHITE",1,"M","N","Y","Y","          Week 2",2,23,"2012-08-27","WEEK 2",4,"Hemoglobin (mmol/L)","HGB",1,"HEM",9.24694,10.05372,-0.80678,7.76,10.55,1.19161597938,0.876487203791,1.29558247423,0.952959241706,"Y",6.57806,"N","N","","",55,"NORMAL",9.24694],["CDISCPILOT01","1023","01-701-1023","Placebo",0,"Placebo",0,"2012-08-05","2012-09-01",64,"<65",1,"WHITE",1,"M","N","Y","Y","          Week 2",2,23,"2012-08-27","WEEK 2",4,"Hematocrit","HCT",2,"HEM",0.46,0.49,-0.03,0.37,0.51,1.24324324324,0.901960784314,1.32432432432,0.960784313725,"Y",0.305,"N","N","","",54,"NORMAL",0.46],["CDISCPILOT01","1023","01-701-1023","Placebo",0,"Placebo",0,"2012-08-05","2012-09-01",64,"<65",1,"WHITE",1,"M","N","Y","Y","          Week 2",2,23,"2012-08-27","WEEK 2",4,"Ery. Mean Corpuscular Volume (fL)","MCV",3,"HEM",95,92,3,80,100,1.1875,0.95,1.15,0.92,"",55,"N","N","","",61,"NORMAL",95],["CDISCPILOT01","1023","01-701-1023","Placebo",0,"Placebo",0,"2012-08-05","2012-09-01",64,"<65",1,"WHITE",1,"M","N","Y","Y","          Week 2",2,23,"2012-08-27","WEEK 2",4,"Ery. Mean Corpuscular Hemoglobin (fmol(Fe))","MCH",4,"HEM",1.92386,1.8618,0.06206,1.6,2.1,1.2024125,0.916123809524,1.163625,0.886571428571,"",1.22614,"N","N","","",59,"NORMAL",1.92386],["CDISCPILOT01","1023","01-701-1023","Placebo",0,"Placebo",0,"2012-08-05","2012-09-01",64,"<65",1,"WHITE",1,"M","N","Y","Y","          Week 2",2,23,"2012-08-27","WEEK 2",4,"Ery. Mean Corpuscular HGB Concentration (mmol/L)","MCHC",5,"HEM",20.4798,20.4798,0,19,24,1.07788421053,0.853325,1.07788421053,0.853325,"",15.5202,"N","N","","",60,"NORMAL",20.4798],["CDISCPILOT01","1023","01-701-1023","Placebo",0,"Placebo",0,"2012-08-05","2012-09-01",64,"<65",1,"WHITE",1,"M","N","Y","Y","          Week 2",2,23,"2012-08-27","WEEK 2",4,"Leukocytes (GI/L)","WBC",6,"HEM",8.55,8.78,-0.23,3.8,10.7,2.25,0.799065420561,2.31052631579,0.820560747664,"",7.5,"N","N","","",72,"NORMAL",8.55],["CDISCPILOT01","1023","01-701-1023","Placebo",0,"Placebo",0,"2012-08-05","2012-09-01",64,"<65",1,"WHITE",1,"M","N","Y","Y","          Week 2",2,23,"2012-08-27","WEEK 2",4,"Lymphocytes (GI/L)","LYM",7,"HEM",2.33,1.69,0.64,0.8,3,2.9125,0.776666666667,2.1125,0.563333333333,"",2.17,"N","N","","",58,"NORMAL",2.33],["CDISCPILOT01","1023","01-701-1023","Placebo",0,"Placebo",0,"2012-08-05","2012-09-01",64,"<65",1,"WHITE",1,"M","N","Y","Y","          Week 2",2,23,"2012-08-27","WEEK 2",4,"Monocytes (GI/L)","MONO",8,"HEM",0.64,0.61,0.03,0.12,0.92,5.33333333333,0.695652173913,5.08333333333,0.663043478261,"",0.74,"N","N","","",62,"NORMAL",0.64],["CDISCPILOT01","1023","01-701-1023","Placebo",0,"Placebo",0,"2012-08-05","2012-09-01",64,"<65",1,"WHITE",1,"M","N","Y","Y","          Week 2",2,23,"2012-08-27","WEEK 2",4,"Eosinophils (GI/L)","EOS",9,"HEM",0.07,0.09,-0.02,null,0.57,null,0.122807017544,null,0.157894736842,"Y",0.785,"N","N","","",51,"NORMAL",0.07],["CDISCPILOT01","1023","01-701-1023","Placebo",0,"Placebo",0,"2012-08-05","2012-09-01",64,"<65",1,"WHITE",1,"M","N","Y","Y","          Week 2",2,23,"2012-08-27","WEEK 2",4,"Basophils (GI/L)","BASO",10,"HEM",0.03,0.06,-0.03,null,0.2,null,0.15,null,0.3,"Y",0.27,"N","N","","",42,"NORMAL",0.03],["CDISCPILOT01","1023","01-701-1023","Placebo",0,"Placebo",0,"2012-08-05","2012-09-01",64,"<65",1,"WHITE",1,"M","N","Y","Y","          Week 2",2,23,"2012-08-27","WEEK 2",4,"Platelet (GI/L)","PLAT",11,"HEM",222,217,5,130,394,1.70769230769,0.56345177665,1.66923076923,0.55076142132,"",369,"N","N","","",66,"NORMAL",222],["CDISCPILOT01","1023","01-701-1023","Placebo",0,"Placebo",0,"2012-08-05","2012-09-01",64,"<65",1,"WHITE",1,"M","N","Y","Y","          Week 2",2,23,"2012-08-27","WEEK 2",4,"Erythrocytes (TI/L)","RBC",12,"HEM",4.8,5.3,-0.5,4,5.8,1.2,0.827586206897,1.325,0.913793103448,"Y",3.9,"N","N","","",68,"NORMAL",4.8],["CDISCPILOT01","1023","01-701-1023","Placebo",0,"Placebo",0,"2012-08-05","2012-09-01",64,"<65",1,"WHITE",1,"M","N","Y","Y","          Week 2",2,23,"2012-08-27","WEEK 2",4,"Hemoglobin (mmol/L) change from previous visit, relative to normal range","_HGB",101,"HEM",-0.6,null,null,null,null,null,null,null,null,"Y",6.57806,"N","","","",55,"NORMAL",9.24694],["CDISCPILOT01","1023","01-701-1023","Placebo",0,"Placebo",0,"2012-08-05","2012-09-01",64,"<65",1,"WHITE",1,"M","N","Y","Y","          Week 2",2,23,"2012-08-27","WEEK 2",4,"Hematocrit change from previous visit, relative to normal range","_HCT",102,"HEM",-0.4,null,null,null,null,null,null,null,null,"Y",0.305,"N","","","",54,"NORMAL",0.46],["CDISCPILOT01","1023","01-701-1023","Placebo",0,"Placebo",0,"2012-08-05","2012-09-01",64,"<65",1,"WHITE",1,"M","N","Y","Y","          Week 2",2,23,"2012-08-27","WEEK 2",4,"Ery. Mean Corpuscular Volume (fL) change from previous visit, relative to normal range","_MCV",103,"HEM",0.3,null,null,null,null,null,null,null,null,"Y",55,"N","","","",61,"NORMAL",95],["CDISCPILOT01","1023","01-701-1023","Placebo",0,"Placebo",0,"2012-08-05","2012-09-01",64,"<65",1,"WHITE",1,"M","N","Y","Y","          Week 2",2,23,"2012-08-27","WEEK 2",4,"Ery. Mean Corpuscular Hemoglobin (fmol(Fe)) change from previous visit, relative to normal range","_MCH",104,"HEM",0.2,null,null,null,null,null,null,null,null,"Y",1.22614,"N","","","",59,"NORMAL",1.92386],["CDISCPILOT01","1023","01-701-1023","Placebo",0,"Placebo",0,"2012-08-05","2012-09-01",64,"<65",1,"WHITE",1,"M","N","Y","Y","          Week 2",2,23,"2012-08-27","WEEK 2",4,"Ery. Mean Corpuscular HGB Concentration (mmol/L) change from previous visit, relative to normal rang","_MCHC",105,"HEM",0,null,null,null,null,null,null,null,null,"",15.5202,"N","","","",60,"NORMAL",20.4798],["CDISCPILOT01","1023","01-701-1023","Placebo",0,"Placebo",0,"2012-08-05","2012-09-01",64,"<65",1,"WHITE",1,"M","N","Y","Y","          Week 2",2,23,"2012-08-27","WEEK 2",4,"Leukocytes (GI/L) change from previous visit, relative to normal range","_WBC",106,"HEM",-0.1,null,null,null,null,null,null,null,null,"",7.5,"N","","","",72,"NORMAL",8.55],["CDISCPILOT01","1023","01-701-1023","Placebo",0,"Placebo",0,"2012-08-05","2012-09-01",64,"<65",1,"WHITE",1,"M","N","Y","Y","          Week 2",2,23,"2012-08-27","WEEK 2",4,"Lymphocytes (GI/L) change from previous visit, relative to normal range","_LYM",107,"HEM",0.6,null,null,null,null,null,null,null,null,"",2.17,"N","","","",58,"NORMAL",2.33],["CDISCPILOT01","1023","01-701-1023","Placebo",0,"Placebo",0,"2012-08-05","2012-09-01",64,"<65",1,"WHITE",1,"M","N","Y","Y","          Week 2",2,23,"2012-08-27","WEEK 2",4,"Monocytes (GI/L) change from previous visit, relative to normal range","_MONO",108,"HEM",0.1,null,null,null,null,null,null,null,null,"",0.74,"N","","","",62,"NORMAL",0.64],["CDISCPILOT01","1023","01-701-1023","Placebo",0,"Placebo",0,"2012-08-05","2012-09-01",64,"<65",1,"WHITE",1,"M","N","Y","Y","          Week 2",2,23,"2012-08-27","WEEK 2",4,"Eosinophils (GI/L) change from previous visit, relative to normal range","_EOS",109,"HEM",-0.1,null,null,null,null,null,null,null,null,"Y",0.785,"N","","","",51,"NORMAL",0.07],["CDISCPILOT01","1023","01-701-1023","Placebo",0,"Placebo",0,"2012-08-05","2012-09-01",64,"<65",1,"WHITE",1,"M","N","Y","Y","          Week 2",2,23,"2012-08-27","WEEK 2",4,"Basophils (GI/L) change from previous visit, relative to normal range","_BASO",110,"HEM",-0.3,null,null,null,null,null,null,null,null,"Y",0.27,"N","","","",42,"NORMAL",0.03],["CDISCPILOT01","1023","01-701-1023","Placebo",0,"Placebo",0,"2012-08-05","2012-09-01",64,"<65",1,"WHITE",1,"M","N","Y","Y","          Week 2",2,23,"2012-08-27","WEEK 2",4,"Platelet (GI/L) change from previous visit, relative to normal range","_PLAT",111,"HEM",0,null,null,null,null,null,null,null,null,"",369,"N","","","",66,"NORMAL",222],["CDISCPILOT01","1023","01-701-1023","Placebo",0,"Placebo",0,"2012-08-05","2012-09-01",64,"<65",1,"WHITE",1,"M","N","Y","Y","          Week 2",2,23,"2012-08-27","WEEK 2",4,"Erythrocytes (TI/L) change from previous visit, relative to normal range","_RBC",112,"HEM",-0.6,null,null,null,null,null,null,null,null,"Y",3.9,"N","","","",68,"NORMAL",4.8],["CDISCPILOT01","1023","01-701-1023","Placebo",0,"Placebo",0,"2012-08-05","2012-09-01",64,"<65",1,"WHITE",1,"M","N","Y","Y","          Week 4",4,29,"2012-09-02","WEEK 4",5,"Hemoglobin (mmol/L)","HGB",1,"HEM",9.49518,10.05372,-0.55854,7.76,10.55,1.2236056701,0.900017061611,1.29558247423,0.952959241706,"",6.32982,"N","N","","Y",90,"NORMAL",9.49518],["CDISCPILOT01","1023","01-701-1023","Placebo",0,"Placebo",0,"2012-08-05","2012-09-01",64,"<65",1,"WHITE",1,"M","N","Y","Y","End of Treatment",99,29,"2012-09-02","WEEK 4",5,"Hemoglobin (mmol/L)","HGB",1,"HEM",9.49518,10.05372,-0.55854,7.76,10.55,1.2236056701,0.900017061611,1.29558247423,0.952959241706,"",6.32982,"N","N","","Y",90,"NORMAL",9.49518],["CDISCPILOT01","1023","01-701-1023","Placebo",0,"Placebo",0,"2012-08-05","2012-09-01",64,"<65",1,"WHITE",1,"M","N","Y","Y","          Week 4",4,29,"2012-09-02","WEEK 4",5,"Hematocrit","HCT",2,"HEM",0.48,0.49,-0.01,0.37,0.51,1.2972972973,0.941176470588,1.32432432432,0.960784313725,"",0.295,"N","N","","Y",89,"NORMAL",0.48],["CDISCPILOT01","1023","01-701-1023","Placebo",0,"Placebo",0,"2012-08-05","2012-09-01",64,"<65",1,"WHITE",1,"M","N","Y","Y","End of Treatment",99,29,"2012-09-02","WEEK 4",5,"Hematocrit","HCT",2,"HEM",0.48,0.49,-0.01,0.37,0.51,1.2972972973,0.941176470588,1.32432432432,0.960784313725,"",0.295,"N","N","","Y",89,"NORMAL",0.48],["CDISCPILOT01","1023","01-701-1023","Placebo",0,"Placebo",0,"2012-08-05","2012-09-01",64,"<65",1,"WHITE",1,"M","N","Y","Y","          Week 4",4,29,"2012-09-02","WEEK 4",5,"Ery. Mean Corpuscular Volume (fL)","MCV",3,"HEM",92,92,0,80,100,1.15,0.92,1.15,0.92,"Y",58,"N","N","","Y",96,"NORMAL",92],["CDISCPILOT01","1023","01-701-1023","Placebo",0,"Placebo",0,"2012-08-05","2012-09-01",64,"<65",1,"WHITE",1,"M","N","Y","Y","End of Treatment",99,29,"2012-09-02","WEEK 4",5,"Ery. Mean Corpuscular Volume (fL)","MCV",3,"HEM",92,92,0,80,100,1.15,0.92,1.15,0.92,"Y",58,"N","N","","Y",96,"NORMAL",92],["CDISCPILOT01","1023","01-701-1023","Placebo",0,"Placebo",0,"2012-08-05","2012-09-01",64,"<65",1,"WHITE",1,"M","N","Y","Y","          Week 4",4,29,"2012-09-02","WEEK 4",5,"Ery. Mean Corpuscular Hemoglobin (fmol(Fe))","MCH",4,"HEM",1.8618,1.8618,0,1.6,2.1,1.163625,0.886571428571,1.163625,0.886571428571,"Y",1.2882,"N","N","","Y",94,"NORMAL",1.8618],["CDISCPILOT01","1023","01-701-1023","Placebo",0,"Placebo",0,"2012-08-05","2012-09-01",64,"<65",1,"WHITE",1,"M","N","Y","Y","End of Treatment",99,29,"2012-09-02","WEEK 4",5,"Ery. Mean Corpuscular Hemoglobin (fmol(Fe))","MCH",4,"HEM",1.8618,1.8618,0,1.6,2.1,1.163625,0.886571428571,1.163625,0.886571428571,"Y",1.2882,"N","N","","Y",94,"NORMAL",1.8618],["CDISCPILOT01","1023","01-701-1023","Placebo",0,"Placebo",0,"2012-08-05","2012-09-01",64,"<65",1,"WHITE",1,"M","N","Y","Y","          Week 4",4,29,"2012-09-02","WEEK 4",5,"Ery. Mean Corpuscular HGB Concentration (mmol/L)","MCHC",5,"HEM",19.8592,20.4798,-0.6206,19,24,1.04522105263,0.827466666667,1.07788421053,0.853325,"Y",16.1408,"N","N","","Y",95,"NORMAL",19.8592],["CDISCPILOT01","1023","01-701-1023","Placebo",0,"Placebo",0,"2012-08-05","2012-09-01",64,"<65",1,"WHITE",1,"M","N","Y","Y","End of Treatment",99,29,"2012-09-02","WEEK 4",5,"Ery. Mean Corpuscular HGB Concentration (mmol/L)","MCHC",5,"HEM",19.8592,20.4798,-0.6206,19,24,1.04522105263,0.827466666667,1.07788421053,0.853325,"Y",16.1408,"N","N","","Y",95,"NORMAL",19.8592],["CDISCPILOT01","1023","01-701-1023","Placebo",0,"Placebo",0,"2012-08-05","2012-09-01",64,"<65",1,"WHITE",1,"M","N","Y","Y","          Week 4",4,29,"2012-09-02","WEEK 4",5,"Leukocytes (GI/L)","WBC",6,"HEM",7.67,8.78,-1.11,3.8,10.7,2.01842105263,0.716822429907,2.31052631579,0.820560747664,"Y",8.38,"N","N","","Y",107,"NORMAL",7.67],["CDISCPILOT01","1023","01-701-1023","Placebo",0,"Placebo",0,"2012-08-05","2012-09-01",64,"<65",1,"WHITE",1,"M","N","Y","Y","End of Treatment",99,29,"2012-09-02","WEEK 4",5,"Leukocytes (GI/L)","WBC",6,"HEM",7.67,8.78,-1.11,3.8,10.7,2.01842105263,0.716822429907,2.31052631579,0.820560747664,"Y",8.38,"N","N","","Y",107,"NORMAL",7.67],["CDISCPILOT01","1023","01-701-1023","Placebo",0,"Placebo",0,"2012-08-05","2012-09-01",64,"<65",1,"WHITE",1,"M","N","Y","Y","          Week 4",4,29,"2012-09-02","WEEK 4",5,"Lymphocytes (GI/L)","LYM",7,"HEM",1.4,1.69,-0.29,0.8,3,1.75,0.466666666667,2.1125,0.563333333333,"Y",3.1,"N","N","","Y",93,"NORMAL",1.4],["CDISCPILOT01","1023","01-701-1023","Placebo",0,"Placebo",0,"2012-08-05","2012-09-01",64,"<65",1,"WHITE",1,"M","N","Y","Y","End of Treatment",99,29,"2012-09-02","WEEK 4",5,"Lymphocytes (GI/L)","LYM",7,"HEM",1.4,1.69,-0.29,0.8,3,1.75,0.466666666667,2.1125,0.563333333333,"Y",3.1,"N","N","","Y",93,"NORMAL",1.4],["CDISCPILOT01","1023","01-701-1023","Placebo",0,"Placebo",0,"2012-08-05","2012-09-01",64,"<65",1,"WHITE",1,"M","N","Y","Y","          Week 4",4,29,"2012-09-02","WEEK 4",5,"Monocytes (GI/L)","MONO",8,"HEM",0.58,0.61,-0.03,0.12,0.92,4.83333333333,0.630434782609,5.08333333333,0.663043478261,"Y",0.8,"N","N","","Y",97,"NORMAL",0.58],["CDISCPILOT01","1023","01-701-1023","Placebo",0,"Placebo",0,"2012-08-05","2012-09-01",64,"<65",1,"WHITE",1,"M","N","Y","Y","End of Treatment",99,29,"2012-09-02","WEEK 4",5,"Monocytes (GI/L)","MONO",8,"HEM",0.58,0.61,-0.03,0.12,0.92,4.83333333333,0.630434782609,5.08333333333,0.663043478261,"Y",0.8,"N","N","","Y",97,"NORMAL",0.58],["CDISCPILOT01","1023","01-701-1023","Placebo",0,"Placebo",0,"2012-08-05","2012-09-01",64,"<65",1,"WHITE",1,"M","N","Y","Y","          Week 4",4,29,"2012-09-02","WEEK 4",5,"Eosinophils (GI/L)","EOS",9,"HEM",0.07,0.09,-0.02,null,0.57,null,0.122807017544,null,0.157894736842,"",0.785,"N","N","","Y",86,"NORMAL",0.07],["CDISCPILOT01","1023","01-701-1023","Placebo",0,"Placebo",0,"2012-08-05","2012-09-01",64,"<65",1,"WHITE",1,"M","N","Y","Y","End of Treatment",99,29,"2012-09-02","WEEK 4",5,"Eosinophils (GI/L)","EOS",9,"HEM",0.07,0.09,-0.02,null,0.57,null,0.122807017544,null,0.157894736842,"",0.785,"N","N","","Y",86,"NORMAL",0.07],["CDISCPILOT01","1023","01-701-1023","Placebo",0,"Placebo",0,"2012-08-05","2012-09-01",64,"<65",1,"WHITE",1,"M","N","Y","Y","          Week 4",4,29,"2012-09-02","WEEK 4",5,"Basophils (GI/L)","BASO",10,"HEM",0.04,0.06,-0.02,null,0.2,null,0.2,null,0.3,"",0.26,"N","N","","Y",77,"NORMAL",0.04],["CDISCPILOT01","1023","01-701-1023","Placebo",0,"Placebo",0,"2012-08-05","2012-09-01",64,"<65",1,"WHITE",1,"M","N","Y","Y","End of Treatment",99,29,"2012-09-02","WEEK 4",5,"Basophils (GI/L)","BASO",10,"HEM",0.04,0.06,-0.02,null,0.2,null,0.2,null,0.3,"",0.26,"N","N","","Y",77,"NORMAL",0.04],["CDISCPILOT01","1023","01-701-1023","Placebo",0,"Placebo",0,"2012-08-05","2012-09-01",64,"<65",1,"WHITE",1,"M","N","Y","Y","          Week 4",4,29,"2012-09-02","WEEK 4",5,"Platelet (GI/L)","PLAT",11,"HEM",198,217,-19,130,394,1.52307692308,0.502538071066,1.66923076923,0.55076142132,"Y",393,"N","N","","Y",101,"NORMAL",198],["CDISCPILOT01","1023","01-701-1023","Placebo",0,"Placebo",0,"2012-08-05","2012-09-01",64,"<65",1,"WHITE",1,"M","N","Y","Y","End of Treatment",99,29,"2012-09-02","WEEK 4",5,"Platelet (GI/L)","PLAT",11,"HEM",198,217,-19,130,394,1.52307692308,0.502538071066,1.66923076923,0.55076142132,"Y",393,"N","N","","Y",101,"NORMAL",198],["CDISCPILOT01","1023","01-701-1023","Placebo",0,"Placebo",0,"2012-08-05","2012-09-01",64,"<65",1,"WHITE",1,"M","N","Y","Y","          Week 4",4,29,"2012-09-02","WEEK 4",5,"Erythrocytes (TI/L)","RBC",12,"HEM",5.2,5.3,-0.1,4,5.8,1.3,0.896551724138,1.325,0.913793103448,"",3.5,"N","N","","Y",103,"NORMAL",5.2],["CDISCPILOT01","1023","01-701-1023","Placebo",0,"Placebo",0,"2012-08-05","2012-09-01",64,"<65",1,"WHITE",1,"M","N","Y","Y","End of Treatment",99,29,"2012-09-02","WEEK 4",5,"Erythrocytes (TI/L)","RBC",12,"HEM",5.2,5.3,-0.1,4,5.8,1.3,0.896551724138,1.325,0.913793103448,"",3.5,"N","N","","Y",103,"NORMAL",5.2],["CDISCPILOT01","1023","01-701-1023","Placebo",0,"Placebo",0,"2012-08-05","2012-09-01",64,"<65",1,"WHITE",1,"M","N","Y","Y","          Week 4",4,29,"2012-09-02","WEEK 4",5,"Hemoglobin (mmol/L) change from previous visit, relative to normal range","_HGB",101,"HEM",0.2,null,null,null,null,null,null,null,null,"",6.32982,"N","","","Y",90,"NORMAL",9.49518],["CDISCPILOT01","1023","01-701-1023","Placebo",0,"Placebo",0,"2012-08-05","2012-09-01",64,"<65",1,"WHITE",1,"M","N","Y","Y","End of Treatment",99,29,"2012-09-02","WEEK 4",5,"Hemoglobin (mmol/L) change from previous visit, relative to normal range","_HGB",101,"HEM",0.2,null,null,null,null,null,null,null,null,"",6.32982,"N","","","Y",90,"NORMAL",9.49518],["CDISCPILOT01","1023","01-701-1023","Placebo",0,"Placebo",0,"2012-08-05","2012-09-01",64,"<65",1,"WHITE",1,"M","N","Y","Y","          Week 4",4,29,"2012-09-02","WEEK 4",5,"Hematocrit change from previous visit, relative to normal range","_HCT",102,"HEM",0.3,null,null,null,null,null,null,null,null,"",0.295,"N","","","Y",89,"NORMAL",0.48],["CDISCPILOT01","1023","01-701-1023","Placebo",0,"Placebo",0,"2012-08-05","2012-09-01",64,"<65",1,"WHITE",1,"M","N","Y","Y","End of Treatment",99,29,"2012-09-02","WEEK 4",5,"Hematocrit change from previous visit, relative to normal range","_HCT",102,"HEM",0.3,null,null,null,null,null,null,null,null,"",0.295,"N","","","Y",89,"NORMAL",0.48],["CDISCPILOT01","1023","01-701-1023","Placebo",0,"Placebo",0,"2012-08-05","2012-09-01",64,"<65",1,"WHITE",1,"M","N","Y","Y","          Week 4",4,29,"2012-09-02","WEEK 4",5,"Ery. Mean Corpuscular Volume (fL) change from previous visit, relative to normal range","_MCV",103,"HEM",-0.3,null,null,null,null,null,null,null,null,"",58,"N","","","Y",96,"NORMAL",92],["CDISCPILOT01","1023","01-701-1023","Placebo",0,"Placebo",0,"2012-08-05","2012-09-01",64,"<65",1,"WHITE",1,"M","N","Y","Y","End of Treatment",99,29,"2012-09-02","WEEK 4",5,"Ery. Mean Corpuscular Volume (fL) change from previous visit, relative to normal range","_MCV",103,"HEM",-0.3,null,null,null,null,null,null,null,null,"",58,"N","","","Y",96,"NORMAL",92],["CDISCPILOT01","1023","01-701-1023","Placebo",0,"Placebo",0,"2012-08-05","2012-09-01",64,"<65",1,"WHITE",1,"M","N","Y","Y","          Week 4",4,29,"2012-09-02","WEEK 4",5,"Ery. Mean Corpuscular Hemoglobin (fmol(Fe)) change from previous visit, relative to normal range","_MCH",104,"HEM",-0.2,null,null,null,null,null,null,null,null,"",1.2882,"N","","","Y",94,"NORMAL",1.8618],["CDISCPILOT01","1023","01-701-1023","Placebo",0,"Placebo",0,"2012-08-05","2012-09-01",64,"<65",1,"WHITE",1,"M","N","Y","Y","End of Treatment",99,29,"2012-09-02","WEEK 4",5,"Ery. Mean Corpuscular Hemoglobin (fmol(Fe)) change from previous visit, relative to normal range","_MCH",104,"HEM",-0.2,null,null,null,null,null,null,null,null,"",1.2882,"N","","","Y",94,"NORMAL",1.8618],["CDISCPILOT01","1023","01-701-1023","Placebo",0,"Placebo",0,"2012-08-05","2012-09-01",64,"<65",1,"WHITE",1,"M","N","Y","Y","          Week 4",4,29,"2012-09-02","WEEK 4",5,"Ery. Mean Corpuscular HGB Concentration (mmol/L) change from previous visit, relative to normal rang","_MCHC",105,"HEM",-0.2,null,null,null,null,null,null,null,null,"Y",16.1408,"N","","","Y",95,"NORMAL",19.8592],["CDISCPILOT01","1023","01-701-1023","Placebo",0,"Placebo",0,"2012-08-05","2012-09-01",64,"<65",1,"WHITE",1,"M","N","Y","Y","End of Treatment",99,29,"2012-09-02","WEEK 4",5,"Ery. Mean Corpuscular HGB Concentration (mmol/L) change from previous visit, relative to normal rang","_MCHC",105,"HEM",-0.2,null,null,null,null,null,null,null,null,"Y",16.1408,"N","","","Y",95,"NORMAL",19.8592],["CDISCPILOT01","1023","01-701-1023","Placebo",0,"Placebo",0,"2012-08-05","2012-09-01",64,"<65",1,"WHITE",1,"M","N","Y","Y","          Week 4",4,29,"2012-09-02","WEEK 4",5,"Leukocytes (GI/L) change from previous visit, relative to normal range","_WBC",106,"HEM",-0.3,null,null,null,null,null,null,null,null,"Y",8.38,"N","","","Y",107,"NORMAL",7.67],["CDISCPILOT01","1023","01-701-1023","Placebo",0,"Placebo",0,"2012-08-05","2012-09-01",64,"<65",1,"WHITE",1,"M","N","Y","Y","End of Treatment",99,29,"2012-09-02","WEEK 4",5,"Leukocytes (GI/L) change from previous visit, relative to normal range","_WBC",106,"HEM",-0.3,null,null,null,null,null,null,null,null,"Y",8.38,"N","","","Y",107,"NORMAL",7.67],["CDISCPILOT01","1023","01-701-1023","Placebo",0,"Placebo",0,"2012-08-05","2012-09-01",64,"<65",1,"WHITE",1,"M","N","Y","Y","          Week 4",4,29,"2012-09-02","WEEK 4",5,"Lymphocytes (GI/L) change from previous visit, relative to normal range","_LYM",107,"HEM",-0.8,null,null,null,null,null,null,null,null,"Y",3.1,"N","","","Y",93,"NORMAL",1.4],["CDISCPILOT01","1023","01-701-1023","Placebo",0,"Placebo",0,"2012-08-05","2012-09-01",64,"<65",1,"WHITE",1,"M","N","Y","Y","End of Treatment",99,29,"2012-09-02","WEEK 4",5,"Lymphocytes (GI/L) change from previous visit, relative to normal range","_LYM",107,"HEM",-0.8,null,null,null,null,null,null,null,null,"Y",3.1,"N","","","Y",93,"NORMAL",1.4],["CDISCPILOT01","1023","01-701-1023","Placebo",0,"Placebo",0,"2012-08-05","2012-09-01",64,"<65",1,"WHITE",1,"M","N","Y","Y","          Week 4",4,29,"2012-09-02","WEEK 4",5,"Monocytes (GI/L) change from previous visit, relative to normal range","_MONO",108,"HEM",-0.2,null,null,null,null,null,null,null,null,"Y",0.8,"N","","","Y",97,"NORMAL",0.58],["CDISCPILOT01","1023","01-701-1023","Placebo",0,"Placebo",0,"2012-08-05","2012-09-01",64,"<65",1,"WHITE",1,"M","N","Y","Y","End of Treatment",99,29,"2012-09-02","WEEK 4",5,"Monocytes (GI/L) change from previous visit, relative to normal range","_MONO",108,"HEM",-0.2,null,null,null,null,null,null,null,null,"Y",0.8,"N","","","Y",97,"NORMAL",0.58],["CDISCPILOT01","1023","01-701-1023","Placebo",0,"Placebo",0,"2012-08-05","2012-09-01",64,"<65",1,"WHITE",1,"M","N","Y","Y","          Week 4",4,29,"2012-09-02","WEEK 4",5,"Eosinophils (GI/L) change from previous visit, relative to normal range","_EOS",109,"HEM",0,null,null,null,null,null,null,null,null,"",0.785,"N","","","Y",86,"NORMAL",0.07],["CDISCPILOT01","1023","01-701-1023","Placebo",0,"Placebo",0,"2012-08-05","2012-09-01",64,"<65",1,"WHITE",1,"M","N","Y","Y","End of Treatment",99,29,"2012-09-02","WEEK 4",5,"Eosinophils (GI/L) change from previous visit, relative to normal range","_EOS",109,"HEM",0,null,null,null,null,null,null,null,null,"",0.785,"N","","","Y",86,"NORMAL",0.07],["CDISCPILOT01","1023","01-701-1023","Placebo",0,"Placebo",0,"2012-08-05","2012-09-01",64,"<65",1,"WHITE",1,"M","N","Y","Y","          Week 4",4,29,"2012-09-02","WEEK 4",5,"Basophils (GI/L) change from previous visit, relative to normal range","_BASO",110,"HEM",0.1,null,null,null,null,null,null,null,null,"",0.26,"N","","","Y",77,"NORMAL",0.04],["CDISCPILOT01","1023","01-701-1023","Placebo",0,"Placebo",0,"2012-08-05","2012-09-01",64,"<65",1,"WHITE",1,"M","N","Y","Y","End of Treatment",99,29,"2012-09-02","WEEK 4",5,"Basophils (GI/L) change from previous visit, relative to normal range","_BASO",110,"HEM",0.1,null,null,null,null,null,null,null,null,"",0.26,"N","","","Y",77,"NORMAL",0.04],["CDISCPILOT01","1023","01-701-1023","Placebo",0,"Placebo",0,"2012-08-05","2012-09-01",64,"<65",1,"WHITE",1,"M","N","Y","Y","          Week 4",4,29,"2012-09-02","WEEK 4",5,"Platelet (GI/L) change from previous visit, relative to normal range","_PLAT",111,"HEM",-0.2,null,null,null,null,null,null,null,null,"Y",393,"N","","","Y",101,"NORMAL",198],["CDISCPILOT01","1023","01-701-1023","Placebo",0,"Placebo",0,"2012-08-05","2012-09-01",64,"<65",1,"WHITE",1,"M","N","Y","Y","End of Treatment",99,29,"2012-09-02","WEEK 4",5,"Platelet (GI/L) change from previous visit, relative to normal range","_PLAT",111,"HEM",-0.2,null,null,null,null,null,null,null,null,"Y",393,"N","","","Y",101,"NORMAL",198],["CDISCPILOT01","1023","01-701-1023","Placebo",0,"Placebo",0,"2012-08-05","2012-09-01",64,"<65",1,"WHITE",1,"M","N","Y","Y","          Week 4",4,29,"2012-09-02","WEEK 4",5,"Erythrocytes (TI/L) change from previous visit, relative to normal range","_RBC",112,"HEM",0.4,null,null,null,null,null,null,null,null,"",3.5,"N","","","Y",103,"NORMAL",5.2],["CDISCPILOT01","1023","01-701-1023","Placebo",0,"Placebo",0,"2012-08-05","2012-09-01",64,"<65",1,"WHITE",1,"M","N","Y","Y","End of Treatment",99,29,"2012-09-02","WEEK 4",5,"Erythrocytes (TI/L) change from previous visit, relative to normal range","_RBC",112,"HEM",0.4,null,null,null,null,null,null,null,null,"",3.5,"N","","","Y",103,"NORMAL",5.2],["CDISCPILOT01","1028","01-701-1028","Xanomeline High Dose",81,"Xanomeline High Dose",81,"2013-07-19","2014-01-14",71,"65-80",2,"WHITE",1,"M","Y","","Y","        Baseline",0,-8,"2013-07-11","SCREENING 1",1,"Hemoglobin (mmol/L)","HGB",1,"HEM",10.42608,10.42608,null,7.76,10.55,1.34356701031,0.988254028436,1.34356701031,0.988254028436,"",6.54608,"N","N","Y","",18,"NORMAL",10.42608],["CDISCPILOT01","1028","01-701-1028","Xanomeline High Dose",81,"Xanomeline High Dose",81,"2013-07-19","2014-01-14",71,"65-80",2,"WHITE",1,"M","Y","","Y","        Baseline",0,-8,"2013-07-11","SCREENING 1",1,"Hematocrit","HCT",2,"HEM",0.47,0.47,null,0.37,0.51,1.27027027027,0.921568627451,1.27027027027,0.921568627451,"",0.295,"N","N","Y","",17,"NORMAL",0.47],["CDISCPILOT01","1028","01-701-1028","Xanomeline High Dose",81,"Xanomeline High Dose",81,"2013-07-19","2014-01-14",71,"65-80",2,"WHITE",1,"M","Y","","Y","        Baseline",0,-8,"2013-07-11","SCREENING 1",1,"Ery. Mean Corpuscular Volume (fL)","MCV",3,"HEM",104,104,null,80,100,1.3,1.04,1.3,1.04,"",64,"N","N","Y","",24,"HIGH",104],["CDISCPILOT01","1028","01-701-1028","Xanomeline High Dose",81,"Xanomeline High Dose",81,"2013-07-19","2014-01-14",71,"65-80",2,"WHITE",1,"M","Y","","Y","        Baseline",0,-8,"2013-07-11","SCREENING 1",1,"Ery. Mean Corpuscular Hemoglobin (fmol(Fe))","MCH",4,"HEM",2.29622,2.29622,null,1.6,2.1,1.4351375,1.09343809524,1.4351375,1.09343809524,"",1.49622,"N","N","Y","",22,"HIGH",2.29622],["CDISCPILOT01","1028","01-701-1028","Xanomeline High Dose",81,"Xanomeline High Dose",81,"2013-07-19","2014-01-14",71,"65-80",2,"WHITE",1,"M","Y","","Y","        Baseline",0,-8,"2013-07-11","SCREENING 1",1,"Ery. Mean Corpuscular HGB Concentration (mmol/L)","MCHC",5,"HEM",22.3416,22.3416,null,19,24,1.17587368421,0.9309,1.17587368421,0.9309,"",13.6584,"N","N","Y","",23,"NORMAL",22.3416],["CDISCPILOT01","1028","01-701-1028","Xanomeline High Dose",81,"Xanomeline High Dose",81,"2013-07-19","2014-01-14",71,"65-80",2,"WHITE",1,"M","Y","","Y","        Baseline",0,-8,"2013-07-11","SCREENING 1",1,"Leukocytes (GI/L)","WBC",6,"HEM",5.05,5.05,null,3.8,10.7,1.32894736842,0.471962616822,1.32894736842,0.471962616822,"",11,"N","N","Y","",37,"NORMAL",5.05],["CDISCPILOT01","1028","01-701-1028","Xanomeline High Dose",81,"Xanomeline High Dose",81,"2013-07-19","2014-01-14",71,"65-80",2,"WHITE",1,"M","Y","","Y","        Baseline",0,-8,"2013-07-11","SCREENING 1",1,"Lymphocytes (GI/L)","LYM",7,"HEM",1.97,1.97,null,0.8,3,2.4625,0.656666666667,2.4625,0.656666666667,"",2.53,"N","N","Y","",21,"NORMAL",1.97],["CDISCPILOT01","1028","01-701-1028","Xanomeline High Dose",81,"Xanomeline High Dose",81,"2013-07-19","2014-01-14",71,"65-80",2,"WHITE",1,"M","Y","","Y","        Baseline",0,-8,"2013-07-11","SCREENING 1",1,"Monocytes (GI/L)","MONO",8,"HEM",0.43,0.43,null,0.12,0.92,3.58333333333,0.467391304348,3.58333333333,0.467391304348,"",0.95,"N","N","Y","",25,"NORMAL",0.43],["CDISCPILOT01","1028","01-701-1028","Xanomeline High Dose",81,"Xanomeline High Dose",81,"2013-07-19","2014-01-14",71,"65-80",2,"WHITE",1,"M","Y","","Y","        Baseline",0,-8,"2013-07-11","SCREENING 1",1,"Eosinophils (GI/L)","EOS",9,"HEM",0.12,0.12,null,null,0.57,null,0.210526315789,null,0.210526315789,"",0.735,"N","N","Y","",14,"NORMAL",0.12],["CDISCPILOT01","1028","01-701-1028","Xanomeline High Dose",81,"Xanomeline High Dose",81,"2013-07-19","2014-01-14",71,"65-80",2,"WHITE",1,"M","Y","","Y","        Baseline",0,-8,"2013-07-11","SCREENING 1",1,"Basophils (GI/L)","BASO",10,"HEM",0.06,0.06,null,null,0.2,null,0.3,null,0.3,"",0.24,"N","N","Y","",5,"NORMAL",0.06],["CDISCPILOT01","1028","01-701-1028","Xanomeline High Dose",81,"Xanomeline High Dose",81,"2013-07-19","2014-01-14",71,"65-80",2,"WHITE",1,"M","Y","","Y","        Baseline",0,-8,"2013-07-11","SCREENING 1",1,"Platelet (GI/L)","PLAT",11,"HEM",168,168,null,130,394,1.29230769231,0.426395939086,1.29230769231,0.426395939086,"",423,"N","N","Y","",29,"NORMAL",168],["CDISCPILOT01","1028","01-701-1028","Xanomeline High Dose",81,"Xanomeline High Dose",81,"2013-07-19","2014-01-14",71,"65-80",2,"WHITE",1,"M","Y","","Y","        Baseline",0,-8,"2013-07-11","SCREENING 1",1,"Erythrocytes (TI/L)","RBC",12,"HEM",4.5,4.5,null,4,5.8,1.125,0.775862068966,1.125,0.775862068966,"",4.2,"N","N","Y","",31,"NORMAL",4.5],["CDISCPILOT01","1028","01-701-1028","Xanomeline High Dose",81,"Xanomeline High Dose",81,"2013-07-19","2014-01-14",71,"65-80",2,"WHITE",1,"M","Y","","Y","        Baseline",0,-8,"2013-07-11","SCREENING 1",1,"Hemoglobin (mmol/L) change from previous visit, relative to normal range","_HGB",101,"HEM",null,null,null,null,null,null,null,null,null,"",6.54608,"","","","",18,"NORMAL",10.42608],["CDISCPILOT01","1028","01-701-1028","Xanomeline High Dose",81,"Xanomeline High Dose",81,"2013-07-19","2014-01-14",71,"65-80",2,"WHITE",1,"M","Y","","Y","        Baseline",0,-8,"2013-07-11","SCREENING 1",1,"Hematocrit change from previous visit, relative to normal range","_HCT",102,"HEM",null,null,null,null,null,null,null,null,null,"",0.295,"","","","",17,"NORMAL",0.47],["CDISCPILOT01","1028","01-701-1028","Xanomeline High Dose",81,"Xanomeline High Dose",81,"2013-07-19","2014-01-14",71,"65-80",2,"WHITE",1,"M","Y","","Y","        Baseline",0,-8,"2013-07-11","SCREENING 1",1,"Ery. Mean Corpuscular Volume (fL) change from previous visit, relative to normal range","_MCV",103,"HEM",null,null,null,null,null,null,null,null,null,"",64,"","","","",24,"HIGH",104],["CDISCPILOT01","1028","01-701-1028","Xanomeline High Dose",81,"Xanomeline High Dose",81,"2013-07-19","2014-01-14",71,"65-80",2,"WHITE",1,"M","Y","","Y","        Baseline",0,-8,"2013-07-11","SCREENING 1",1,"Ery. Mean Corpuscular Hemoglobin (fmol(Fe)) change from previous visit, relative to normal range","_MCH",104,"HEM",null,null,null,null,null,null,null,null,null,"",1.49622,"","","","",22,"HIGH",2.29622],["CDISCPILOT01","1028","01-701-1028","Xanomeline High Dose",81,"Xanomeline High Dose",81,"2013-07-19","2014-01-14",71,"65-80",2,"WHITE",1,"M","Y","","Y","        Baseline",0,-8,"2013-07-11","SCREENING 1",1,"Ery. Mean Corpuscular HGB Concentration (mmol/L) change from previous visit, relative to normal rang","_MCHC",105,"HEM",null,null,null,null,null,null,null,null,null,"",13.6584,"","","","",23,"NORMAL",22.3416],["CDISCPILOT01","1028","01-701-1028","Xanomeline High Dose",81,"Xanomeline High Dose",81,"2013-07-19","2014-01-14",71,"65-80",2,"WHITE",1,"M","Y","","Y","        Baseline",0,-8,"2013-07-11","SCREENING 1",1,"Leukocytes (GI/L) change from previous visit, relative to normal range","_WBC",106,"HEM",null,null,null,null,null,null,null,null,null,"",11,"","","","",37,"NORMAL",5.05],["CDISCPILOT01","1028","01-701-1028","Xanomeline High Dose",81,"Xanomeline High Dose",81,"2013-07-19","2014-01-14",71,"65-80",2,"WHITE",1,"M","Y","","Y","        Baseline",0,-8,"2013-07-11","SCREENING 1",1,"Lymphocytes (GI/L) change from previous visit, relative to normal range","_LYM",107,"HEM",null,null,null,null,null,null,null,null,null,"",2.53,"","","","",21,"NORMAL",1.97],["CDISCPILOT01","1028","01-701-1028","Xanomeline High Dose",81,"Xanomeline High Dose",81,"2013-07-19","2014-01-14",71,"65-80",2,"WHITE",1,"M","Y","","Y","        Baseline",0,-8,"2013-07-11","SCREENING 1",1,"Monocytes (GI/L) change from previous visit, relative to normal range","_MONO",108,"HEM",null,null,null,null,null,null,null,null,null,"",0.95,"","","","",25,"NORMAL",0.43],["CDISCPILOT01","1028","01-701-1028","Xanomeline High Dose",81,"Xanomeline High Dose",81,"2013-07-19","2014-01-14",71,"65-80",2,"WHITE",1,"M","Y","","Y","        Baseline",0,-8,"2013-07-11","SCREENING 1",1,"Eosinophils (GI/L) change from previous visit, relative to normal range","_EOS",109,"HEM",null,null,null,null,null,null,null,null,null,"",0.735,"","","","",14,"NORMAL",0.12],["CDISCPILOT01","1028","01-701-1028","Xanomeline High Dose",81,"Xanomeline High Dose",81,"2013-07-19","2014-01-14",71,"65-80",2,"WHITE",1,"M","Y","","Y","        Baseline",0,-8,"2013-07-11","SCREENING 1",1,"Basophils (GI/L) change from previous visit, relative to normal range","_BASO",110,"HEM",null,null,null,null,null,null,null,null,null,"",0.24,"","","","",5,"NORMAL",0.06],["CDISCPILOT01","1028","01-701-1028","Xanomeline High Dose",81,"Xanomeline High Dose",81,"2013-07-19","2014-01-14",71,"65-80",2,"WHITE",1,"M","Y","","Y","        Baseline",0,-8,"2013-07-11","SCREENING 1",1,"Platelet (GI/L) change from previous visit, relative to normal range","_PLAT",111,"HEM",null,null,null,null,null,null,null,null,null,"",423,"","","","",29,"NORMAL",168],["CDISCPILOT01","1028","01-701-1028","Xanomeline High Dose",81,"Xanomeline High Dose",81,"2013-07-19","2014-01-14",71,"65-80",2,"WHITE",1,"M","Y","","Y","        Baseline",0,-8,"2013-07-11","SCREENING 1",1,"Erythrocytes (TI/L) change from previous visit, relative to normal range","_RBC",112,"HEM",null,null,null,null,null,null,null,null,null,"",4.2,"","","","",31,"NORMAL",4.5],["CDISCPILOT01","1028","01-701-1028","Xanomeline High Dose",81,"Xanomeline High Dose",81,"2013-07-19","2014-01-14",71,"65-80",2,"WHITE",1,"M","Y","","Y","          Week 2",2,14,"2013-08-01","WEEK 2",4,"Hemoglobin (mmol/L)","HGB",1,"HEM",9.74342,10.42608,-0.68266,7.76,10.55,1.25559536082,0.923546919431,1.34356701031,0.988254028436,"",6.08158,"N","N","","",55,"NORMAL",9.74342],["CDISCPILOT01","1028","01-701-1028","Xanomeline High Dose",81,"Xanomeline High Dose",81,"2013-07-19","2014-01-14",71,"65-80",2,"WHITE",1,"M","Y","","Y","          Week 2",2,14,"2013-08-01","WEEK 2",4,"Hematocrit","HCT",2,"HEM",0.46,0.47,-0.01,0.37,0.51,1.24324324324,0.901960784314,1.27027027027,0.921568627451,"",0.305,"N","N","","",54,"NORMAL",0.46],["CDISCPILOT01","1028","01-701-1028","Xanomeline High Dose",81,"Xanomeline High Dose",81,"2013-07-19","2014-01-14",71,"65-80",2,"WHITE",1,"M","Y","","Y","          Week 2",2,14,"2013-08-01","WEEK 2",4,"Ery. Mean Corpuscular Volume (fL)","MCV",3,"HEM",99,104,-5,80,100,1.2375,0.99,1.3,1.04,"",59,"N","N","","",61,"NORMAL",99],["CDISCPILOT01","1028","01-701-1028","Xanomeline High Dose",81,"Xanomeline High Dose",81,"2013-07-19","2014-01-14",71,"65-80",2,"WHITE",1,"M","Y","","Y","          Week 2",2,14,"2013-08-01","WEEK 2",4,"Ery. Mean Corpuscular Hemoglobin (fmol(Fe))","MCH",4,"HEM",2.11004,2.29622,-0.18618,1.6,2.1,1.318775,1.00478095238,1.4351375,1.09343809524,"",1.31004,"N","N","","",59,"NORMAL",2.11004],["CDISCPILOT01","1028","01-701-1028","Xanomeline High Dose",81,"Xanomeline High Dose",81,"2013-07-19","2014-01-14",71,"65-80",2,"WHITE",1,"M","Y","","Y","          Week 2",2,14,"2013-08-01","WEEK 2",4,"Ery. Mean Corpuscular HGB Concentration (mmol/L)","MCHC",5,"HEM",21.721,22.3416,-0.6206,19,24,1.14321052632,0.905041666667,1.17587368421,0.9309,"",14.279,"N","N","","",60,"NORMAL",21.721],["CDISCPILOT01","1028","01-701-1028","Xanomeline High Dose",81,"Xanomeline High Dose",81,"2013-07-19","2014-01-14",71,"65-80",2,"WHITE",1,"M","Y","","Y","          Week 2",2,14,"2013-08-01","WEEK 2",4,"Leukocytes (GI/L)","WBC",6,"HEM",4.95,5.05,-0.1,3.8,10.7,1.30263157895,0.46261682243,1.32894736842,0.471962616822,"",11.1,"N","N","","",72,"NORMAL",4.95],["CDISCPILOT01","1028","01-701-1028","Xanomeline High Dose",81,"Xanomeline High Dose",81,"2013-07-19","2014-01-14",71,"65-80",2,"WHITE",1,"M","Y","","Y","          Week 2",2,14,"2013-08-01","WEEK 2",4,"Lymphocytes (GI/L)","LYM",7,"HEM",1.85,1.97,-0.12,0.8,3,2.3125,0.616666666667,2.4625,0.656666666667,"",2.65,"N","N","","",58,"NORMAL",1.85],["CDISCPILOT01","1028","01-701-1028","Xanomeline High Dose",81,"Xanomeline High Dose",81,"2013-07-19","2014-01-14",71,"65-80",2,"WHITE",1,"M","Y","","Y","          Week 2",2,14,"2013-08-01","WEEK 2",4,"Monocytes (GI/L)","MONO",8,"HEM",0.5,0.43,0.07,0.12,0.92,4.16666666667,0.54347826087,3.58333333333,0.467391304348,"",0.88,"N","N","","",62,"NORMAL",0.5],["CDISCPILOT01","1028","01-701-1028","Xanomeline High Dose",81,"Xanomeline High Dose",81,"2013-07-19","2014-01-14",71,"65-80",2,"WHITE",1,"M","Y","","Y","          Week 2",2,14,"2013-08-01","WEEK 2",4,"Eosinophils (GI/L)","EOS",9,"HEM",0.28,0.12,0.16,null,0.57,null,0.491228070175,null,0.210526315789,"",0.575,"N","N","","",51,"NORMAL",0.28],["CDISCPILOT01","1028","01-701-1028","Xanomeline High Dose",81,"Xanomeline High Dose",81,"2013-07-19","2014-01-14",71,"65-80",2,"WHITE",1,"M","Y","","Y","          Week 2",2,14,"2013-08-01","WEEK 2",4,"Basophils (GI/L)","BASO",10,"HEM",0.06,0.06,0,null,0.2,null,0.3,null,0.3,"",0.24,"N","N","","",42,"NORMAL",0.06],["CDISCPILOT01","1028","01-701-1028","Xanomeline High Dose",81,"Xanomeline High Dose",81,"2013-07-19","2014-01-14",71,"65-80",2,"WHITE",1,"M","Y","","Y","          Week 2",2,14,"2013-08-01","WEEK 2",4,"Platelet (GI/L)","PLAT",11,"HEM",177,168,9,130,394,1.36153846154,0.44923857868,1.29230769231,0.426395939086,"",414,"N","N","","",66,"NORMAL",177],["CDISCPILOT01","1028","01-701-1028","Xanomeline High Dose",81,"Xanomeline High Dose",81,"2013-07-19","2014-01-14",71,"65-80",2,"WHITE",1,"M","Y","","Y","          Week 2",2,14,"2013-08-01","WEEK 2",4,"Erythrocytes (TI/L)","RBC",12,"HEM",4.6,4.5,0.1,4,5.8,1.15,0.793103448276,1.125,0.775862068966,"",4.1,"N","N","","",68,"NORMAL",4.6],["CDISCPILOT01","1028","01-701-1028","Xanomeline High Dose",81,"Xanomeline High Dose",81,"2013-07-19","2014-01-14",71,"65-80",2,"WHITE",1,"M","Y","","Y","          Week 2",2,14,"2013-08-01","WEEK 2",4,"Hemoglobin (mmol/L) change from previous visit, relative to normal range","_HGB",101,"HEM",-0.5,null,null,null,null,null,null,null,null,"",6.08158,"N","","","",55,"NORMAL",9.74342],["CDISCPILOT01","1028","01-701-1028","Xanomeline High Dose",81,"Xanomeline High Dose",81,"2013-07-19","2014-01-14",71,"65-80",2,"WHITE",1,"M","Y","","Y","          Week 2",2,14,"2013-08-01","WEEK 2",4,"Hematocrit change from previous visit, relative to normal range","_HCT",102,"HEM",-0.1,null,null,null,null,null,null,null,null,"",0.305,"N","","","",54,"NORMAL",0.46],["CDISCPILOT01","1028","01-701-1028","Xanomeline High Dose",81,"Xanomeline High Dose",81,"2013-07-19","2014-01-14",71,"65-80",2,"WHITE",1,"M","Y","","Y","          Week 2",2,14,"2013-08-01","WEEK 2",4,"Ery. Mean Corpuscular Volume (fL) change from previous visit, relative to normal range","_MCV",103,"HEM",-0.5,null,null,null,null,null,null,null,null,"Y",59,"N","","","",61,"NORMAL",99],["CDISCPILOT01","1028","01-701-1028","Xanomeline High Dose",81,"Xanomeline High Dose",81,"2013-07-19","2014-01-14",71,"65-80",2,"WHITE",1,"M","Y","","Y","          Week 2",2,14,"2013-08-01","WEEK 2",4,"Ery. Mean Corpuscular Hemoglobin (fmol(Fe)) change from previous visit, relative to normal range","_MCH",104,"HEM",-0.7,null,null,null,null,null,null,null,null,"Y",1.31004,"N","","","",59,"NORMAL",2.11004],["CDISCPILOT01","1028","01-701-1028","Xanomeline High Dose",81,"Xanomeline High Dose",81,"2013-07-19","2014-01-14",71,"65-80",2,"WHITE",1,"M","Y","","Y","          Week 2",2,14,"2013-08-01","WEEK 2",4,"Ery. Mean Corpuscular HGB Concentration (mmol/L) change from previous visit, relative to normal rang","_MCHC",105,"HEM",-0.2,null,null,null,null,null,null,null,null,"",14.279,"N","","","",60,"NORMAL",21.721],["CDISCPILOT01","1028","01-701-1028","Xanomeline High Dose",81,"Xanomeline High Dose",81,"2013-07-19","2014-01-14",71,"65-80",2,"WHITE",1,"M","Y","","Y","          Week 2",2,14,"2013-08-01","WEEK 2",4,"Leukocytes (GI/L) change from previous visit, relative to normal range","_WBC",106,"HEM",0,null,null,null,null,null,null,null,null,"",11.1,"N","","","",72,"NORMAL",4.95],["CDISCPILOT01","1028","01-701-1028","Xanomeline High Dose",81,"Xanomeline High Dose",81,"2013-07-19","2014-01-14",71,"65-80",2,"WHITE",1,"M","Y","","Y","          Week 2",2,14,"2013-08-01","WEEK 2",4,"Lymphocytes (GI/L) change from previous visit, relative to normal range","_LYM",107,"HEM",-0.1,null,null,null,null,null,null,null,null,"",2.65,"N","","","",58,"NORMAL",1.85],["CDISCPILOT01","1028","01-701-1028","Xanomeline High Dose",81,"Xanomeline High Dose",81,"2013-07-19","2014-01-14",71,"65-80",2,"WHITE",1,"M","Y","","Y","          Week 2",2,14,"2013-08-01","WEEK 2",4,"Monocytes (GI/L) change from previous visit, relative to normal range","_MONO",108,"HEM",0.2,null,null,null,null,null,null,null,null,"",0.88,"N","","","",62,"NORMAL",0.5],["CDISCPILOT01","1028","01-701-1028","Xanomeline High Dose",81,"Xanomeline High Dose",81,"2013-07-19","2014-01-14",71,"65-80",2,"WHITE",1,"M","Y","","Y","          Week 2",2,14,"2013-08-01","WEEK 2",4,"Eosinophils (GI/L) change from previous visit, relative to normal range","_EOS",109,"HEM",0.6,null,null,null,null,null,null,null,null,"Y",0.575,"N","","","",51,"NORMAL",0.28],["CDISCPILOT01","1028","01-701-1028","Xanomeline High Dose",81,"Xanomeline High Dose",81,"2013-07-19","2014-01-14",71,"65-80",2,"WHITE",1,"M","Y","","Y","          Week 2",2,14,"2013-08-01","WEEK 2",4,"Basophils (GI/L) change from previous visit, relative to normal range","_BASO",110,"HEM",0,null,null,null,null,null,null,null,null,"",0.24,"N","","","",42,"NORMAL",0.06],["CDISCPILOT01","1028","01-701-1028","Xanomeline High Dose",81,"Xanomeline High Dose",81,"2013-07-19","2014-01-14",71,"65-80",2,"WHITE",1,"M","Y","","Y","          Week 2",2,14,"2013-08-01","WEEK 2",4,"Platelet (GI/L) change from previous visit, relative to normal range","_PLAT",111,"HEM",0.1,null,null,null,null,null,null,null,null,"",414,"N","","","",66,"NORMAL",177],["CDISCPILOT01","1028","01-701-1028","Xanomeline High Dose",81,"Xanomeline High Dose",81,"2013-07-19","2014-01-14",71,"65-80",2,"WHITE",1,"M","Y","","Y","          Week 2",2,14,"2013-08-01","WEEK 2",4,"Erythrocytes (TI/L) change from previous visit, relative to normal range","_RBC",112,"HEM",0.1,null,null,null,null,null,null,null,null,"",4.1,"N","","","",68,"NORMAL",4.6],["CDISCPILOT01","1028","01-701-1028","Xanomeline High Dose",81,"Xanomeline High Dose",81,"2013-07-19","2014-01-14",71,"65-80",2,"WHITE",1,"M","Y","","Y","          Week 4",4,27,"2013-08-14","WEEK 4",5,"Hemoglobin (mmol/L)","HGB",1,"HEM",9.55724,10.42608,-0.86884,7.76,10.55,1.23160309278,0.905899526066,1.34356701031,0.988254028436,"",6.26776,"N","N","","",89,"NORMAL",9.55724],["CDISCPILOT01","1028","01-701-1028","Xanomeline High Dose",81,"Xanomeline High Dose",81,"2013-07-19","2014-01-14",71,"65-80",2,"WHITE",1,"M","Y","","Y","          Week 4",4,27,"2013-08-14","WEEK 4",5,"Hematocrit","HCT",2,"HEM",0.45,0.47,-0.02,0.37,0.51,1.21621621622,0.882352941176,1.27027027027,0.921568627451,"",0.315,"N","N","","",88,"NORMAL",0.45],["CDISCPILOT01","1028","01-701-1028","Xanomeline High Dose",81,"Xanomeline High Dose",81,"2013-07-19","2014-01-14",71,"65-80",2,"WHITE",1,"M","Y","","Y","          Week 4",4,27,"2013-08-14","WEEK 4",5,"Ery. Mean Corpuscular Volume (fL)","MCV",3,"HEM",101,104,-3,80,100,1.2625,1.01,1.3,1.04,"",61,"N","N","","",94,"HIGH",101],["CDISCPILOT01","1028","01-701-1028","Xanomeline High Dose",81,"Xanomeline High Dose",81,"2013-07-19","2014-01-14",71,"65-80",2,"WHITE",1,"M","Y","","Y","          Week 4",4,27,"2013-08-14","WEEK 4",5,"Ery. Mean Corpuscular Hemoglobin (fmol(Fe))","MCH",4,"HEM",2.1721,2.29622,-0.12412,1.6,2.1,1.3575625,1.03433333333,1.4351375,1.09343809524,"Y",1.3721,"N","N","","",92,"HIGH",2.1721],["CDISCPILOT01","1028","01-701-1028","Xanomeline High Dose",81,"Xanomeline High Dose",81,"2013-07-19","2014-01-14",71,"65-80",2,"WHITE",1,"M","Y","","Y","          Week 4",4,27,"2013-08-14","WEEK 4",5,"Ery. Mean Corpuscular HGB Concentration (mmol/L)","MCHC",5,"HEM",21.1004,22.3416,-1.2412,19,24,1.11054736842,0.879183333333,1.17587368421,0.9309,"",14.8996,"N","N","","",93,"NORMAL",21.1004],["CDISCPILOT01","1028","01-701-1028","Xanomeline High Dose",81,"Xanomeline High Dose",81,"2013-07-19","2014-01-14",71,"65-80",2,"WHITE",1,"M","Y","","Y","          Week 4",4,27,"2013-08-14","WEEK 4",5,"Leukocytes (GI/L)","WBC",6,"HEM",5.67,5.05,0.62,3.8,10.7,1.49210526316,0.529906542056,1.32894736842,0.471962616822,"",10.38,"N","N","","",102,"NORMAL",5.67],["CDISCPILOT01","1028","01-701-1028","Xanomeline High Dose",81,"Xanomeline High Dose",81,"2013-07-19","2014-01-14",71,"65-80",2,"WHITE",1,"M","Y","","Y","          Week 4",4,27,"2013-08-14","WEEK 4",5,"Lymphocytes (GI/L)","LYM",7,"HEM",1.94,1.97,-0.03,0.8,3,2.425,0.646666666667,2.4625,0.656666666667,"",2.56,"N","N","","",91,"NORMAL",1.94],["CDISCPILOT01","1028","01-701-1028","Xanomeline High Dose",81,"Xanomeline High Dose",81,"2013-07-19","2014-01-14",71,"65-80",2,"WHITE",1,"M","Y","","Y","          Week 4",4,27,"2013-08-14","WEEK 4",5,"Monocytes (GI/L)","MONO",8,"HEM",0.65,0.43,0.22,0.12,0.92,5.41666666667,0.70652173913,3.58333333333,0.467391304348,"",0.73,"N","N","","",95,"NORMAL",0.65],["CDISCPILOT01","1028","01-701-1028","Xanomeline High Dose",81,"Xanomeline High Dose",81,"2013-07-19","2014-01-14",71,"65-80",2,"WHITE",1,"M","Y","","Y","          Week 4",4,27,"2013-08-14","WEEK 4",5,"Eosinophils (GI/L)","EOS",9,"HEM",0.21,0.12,0.09,null,0.57,null,0.368421052632,null,0.210526315789,"",0.645,"N","N","","",85,"NORMAL",0.21],["CDISCPILOT01","1028","01-701-1028","Xanomeline High Dose",81,"Xanomeline High Dose",81,"2013-07-19","2014-01-14",71,"65-80",2,"WHITE",1,"M","Y","","Y","          Week 4",4,27,"2013-08-14","WEEK 4",5,"Basophils (GI/L)","BASO",10,"HEM",0.04,0.06,-0.02,null,0.2,null,0.2,null,0.3,"Y",0.26,"N","N","","",77,"NORMAL",0.04],["CDISCPILOT01","1028","01-701-1028","Xanomeline High Dose",81,"Xanomeline High Dose",81,"2013-07-19","2014-01-14",71,"65-80",2,"WHITE",1,"M","Y","","Y","          Week 4",4,27,"2013-08-14","WEEK 4",5,"Platelet (GI/L)","PLAT",11,"HEM",152,168,-16,130,394,1.16923076923,0.38578680203,1.29230769231,0.426395939086,"Y",439,"N","N","","",98,"NORMAL",152],["CDISCPILOT01","1028","01-701-1028","Xanomeline High Dose",81,"Xanomeline High Dose",81,"2013-07-19","2014-01-14",71,"65-80",2,"WHITE",1,"M","Y","","Y","          Week 4",4,27,"2013-08-14","WEEK 4",5,"Erythrocytes (TI/L)","RBC",12,"HEM",4.5,4.5,0,4,5.8,1.125,0.775862068966,1.125,0.775862068966,"",4.2,"N","N","","",100,"NORMAL",4.5],["CDISCPILOT01","1028","01-701-1028","Xanomeline High Dose",81,"Xanomeline High Dose",81,"2013-07-19","2014-01-14",71,"65-80",2,"WHITE",1,"M","Y","","Y","          Week 4",4,27,"2013-08-14","WEEK 4",5,"Hemoglobin (mmol/L) change from previous visit, relative to normal range","_HGB",101,"HEM",-0.1,null,null,null,null,null,null,null,null,"",6.26776,"N","","","",89,"NORMAL",9.55724],["CDISCPILOT01","1028","01-701-1028","Xanomeline High Dose",81,"Xanomeline High Dose",81,"2013-07-19","2014-01-14",71,"65-80",2,"WHITE",1,"M","Y","","Y","          Week 4",4,27,"2013-08-14","WEEK 4",5,"Hematocrit change from previous visit, relative to normal range","_HCT",102,"HEM",-0.1,null,null,null,null,null,null,null,null,"",0.315,"N","","","",88,"NORMAL",0.45],["CDISCPILOT01","1028","01-701-1028","Xanomeline High Dose",81,"Xanomeline High Dose",81,"2013-07-19","2014-01-14",71,"65-80",2,"WHITE",1,"M","Y","","Y","          Week 4",4,27,"2013-08-14","WEEK 4",5,"Ery. Mean Corpuscular Volume (fL) change from previous visit, relative to normal range","_MCV",103,"HEM",0.2,null,null,null,null,null,null,null,null,"",61,"N","","","",94,"HIGH",101],["CDISCPILOT01","1028","01-701-1028","Xanomeline High Dose",81,"Xanomeline High Dose",81,"2013-07-19","2014-01-14",71,"65-80",2,"WHITE",1,"M","Y","","Y","          Week 4",4,27,"2013-08-14","WEEK 4",5,"Ery. Mean Corpuscular Hemoglobin (fmol(Fe)) change from previous visit, relative to normal range","_MCH",104,"HEM",0.2,null,null,null,null,null,null,null,null,"",1.3721,"N","","","",92,"HIGH",2.1721],["CDISCPILOT01","1028","01-701-1028","Xanomeline High Dose",81,"Xanomeline High Dose",81,"2013-07-19","2014-01-14",71,"65-80",2,"WHITE",1,"M","Y","","Y","          Week 4",4,27,"2013-08-14","WEEK 4",5,"Ery. Mean Corpuscular HGB Concentration (mmol/L) change from previous visit, relative to normal rang","_MCHC",105,"HEM",-0.2,null,null,null,null,null,null,null,null,"",14.8996,"N","","","",93,"NORMAL",21.1004],["CDISCPILOT01","1028","01-701-1028","Xanomeline High Dose",81,"Xanomeline High Dose",81,"2013-07-19","2014-01-14",71,"65-80",2,"WHITE",1,"M","Y","","Y","          Week 4",4,27,"2013-08-14","WEEK 4",5,"Leukocytes (GI/L) change from previous visit, relative to normal range","_WBC",106,"HEM",0.2,null,null,null,null,null,null,null,null,"",10.38,"N","","","",102,"NORMAL",5.67],["CDISCPILOT01","1028","01-701-1028","Xanomeline High Dose",81,"Xanomeline High Dose",81,"2013-07-19","2014-01-14",71,"65-80",2,"WHITE",1,"M","Y","","Y","          Week 4",4,27,"2013-08-14","WEEK 4",5,"Lymphocytes (GI/L) change from previous visit, relative to normal range","_LYM",107,"HEM",0.1,null,null,null,null,null,null,null,null,"",2.56,"N","","","",91,"NORMAL",1.94],["CDISCPILOT01","1028","01-701-1028","Xanomeline High Dose",81,"Xanomeline High Dose",81,"2013-07-19","2014-01-14",71,"65-80",2,"WHITE",1,"M","Y","","Y","          Week 4",4,27,"2013-08-14","WEEK 4",5,"Monocytes (GI/L) change from previous visit, relative to normal range","_MONO",108,"HEM",0.4,null,null,null,null,null,null,null,null,"",0.73,"N","","","",95,"NORMAL",0.65],["CDISCPILOT01","1028","01-701-1028","Xanomeline High Dose",81,"Xanomeline High Dose",81,"2013-07-19","2014-01-14",71,"65-80",2,"WHITE",1,"M","Y","","Y","          Week 4",4,27,"2013-08-14","WEEK 4",5,"Eosinophils (GI/L) change from previous visit, relative to normal range","_EOS",109,"HEM",-0.2,null,null,null,null,null,null,null,null,"",0.645,"N","","","",85,"NORMAL",0.21],["CDISCPILOT01","1028","01-701-1028","Xanomeline High Dose",81,"Xanomeline High Dose",81,"2013-07-19","2014-01-14",71,"65-80",2,"WHITE",1,"M","Y","","Y","          Week 4",4,27,"2013-08-14","WEEK 4",5,"Basophils (GI/L) change from previous visit, relative to normal range","_BASO",110,"HEM",-0.2,null,null,null,null,null,null,null,null,"",0.26,"N","","","",77,"NORMAL",0.04],["CDISCPILOT01","1028","01-701-1028","Xanomeline High Dose",81,"Xanomeline High Dose",81,"2013-07-19","2014-01-14",71,"65-80",2,"WHITE",1,"M","Y","","Y","          Week 4",4,27,"2013-08-14","WEEK 4",5,"Platelet (GI/L) change from previous visit, relative to normal range","_PLAT",111,"HEM",-0.2,null,null,null,null,null,null,null,null,"Y",439,"N","","","",98,"NORMAL",152],["CDISCPILOT01","1028","01-701-1028","Xanomeline High Dose",81,"Xanomeline High Dose",81,"2013-07-19","2014-01-14",71,"65-80",2,"WHITE",1,"M","Y","","Y","          Week 4",4,27,"2013-08-14","WEEK 4",5,"Erythrocytes (TI/L) change from previous visit, relative to normal range","_RBC",112,"HEM",-0.1,null,null,null,null,null,null,null,null,"",4.2,"N","","","",100,"NORMAL",4.5],["CDISCPILOT01","1028","01-701-1028","Xanomeline High Dose",81,"Xanomeline High Dose",81,"2013-07-19","2014-01-14",71,"65-80",2,"WHITE",1,"M","Y","","Y","          Week 6",6,42,"2013-08-29","WEEK 6",7,"Hemoglobin (mmol/L)","HGB",1,"HEM",9.86754,10.42608,-0.55854,7.76,10.55,1.27159020619,0.935311848341,1.34356701031,0.988254028436,"",5.98754,"N","N","","",119,"NORMAL",9.86754],["CDISCPILOT01","1028","01-701-1028","Xanomeline High Dose",81,"Xanomeline High Dose",81,"2013-07-19","2014-01-14",71,"65-80",2,"WHITE",1,"M","Y","","Y","          Week 6",6,42,"2013-08-29","WEEK 6",7,"Hematocrit","HCT",2,"HEM",0.47,0.47,0,0.37,0.51,1.27027027027,0.921568627451,1.27027027027,0.921568627451,"",0.295,"N","N","","",118,"NORMAL",0.47],["CDISCPILOT01","1028","01-701-1028","Xanomeline High Dose",81,"Xanomeline High Dose",81,"2013-07-19","2014-01-14",71,"65-80",2,"WHITE",1,"M","Y","","Y","          Week 6",6,42,"2013-08-29","WEEK 6",7,"Ery. Mean Corpuscular Volume (fL)","MCV",3,"HEM",101,104,-3,80,100,1.2625,1.01,1.3,1.04,"",61,"N","N","","",124,"HIGH",101],["CDISCPILOT01","1028","01-701-1028","Xanomeline High Dose",81,"Xanomeline High Dose",81,"2013-07-19","2014-01-14",71,"65-80",2,"WHITE",1,"M","Y","","Y","          Week 6",6,42,"2013-08-29","WEEK 6",7,"Ery. Mean Corpuscular Hemoglobin (fmol(Fe))","MCH",4,"HEM",2.11004,2.29622,-0.18618,1.6,2.1,1.318775,1.00478095238,1.4351375,1.09343809524,"",1.31004,"N","N","","",122,"NORMAL",2.11004],["CDISCPILOT01","1028","01-701-1028","Xanomeline High Dose",81,"Xanomeline High Dose",81,"2013-07-19","2014-01-14",71,"65-80",2,"WHITE",1,"M","Y","","Y","          Week 6",6,42,"2013-08-29","WEEK 6",7,"Ery. Mean Corpuscular HGB Concentration (mmol/L)","MCHC",5,"HEM",21.1004,22.3416,-1.2412,19,24,1.11054736842,0.879183333333,1.17587368421,0.9309,"",14.8996,"N","N","","",123,"NORMAL",21.1004],["CDISCPILOT01","1028","01-701-1028","Xanomeline High Dose",81,"Xanomeline High Dose",81,"2013-07-19","2014-01-14",71,"65-80",2,"WHITE",1,"M","Y","","Y","          Week 6",6,42,"2013-08-29","WEEK 6",7,"Leukocytes (GI/L)","WBC",6,"HEM",5.62,5.05,0.57,3.8,10.7,1.47894736842,0.52523364486,1.32894736842,0.471962616822,"",10.43,"N","N","","",132,"NORMAL",5.62],["CDISCPILOT01","1028","01-701-1028","Xanomeline High Dose",81,"Xanomeline High Dose",81,"2013-07-19","2014-01-14",71,"65-80",2,"WHITE",1,"M","Y","","Y","          Week 6",6,42,"2013-08-29","WEEK 6",7,"Lymphocytes (GI/L)","LYM",7,"HEM",1.97,1.97,0,0.8,3,2.4625,0.656666666667,2.4625,0.656666666667,"",2.53,"N","N","","",121,"NORMAL",1.97],["CDISCPILOT01","1028","01-701-1028","Xanomeline High Dose",81,"Xanomeline High Dose",81,"2013-07-19","2014-01-14",71,"65-80",2,"WHITE",1,"M","Y","","Y","          Week 6",6,42,"2013-08-29","WEEK 6",7,"Monocytes (GI/L)","MONO",8,"HEM",0.42,0.43,-0.01,0.12,0.92,3.5,0.45652173913,3.58333333333,0.467391304348,"",0.96,"N","N","","",125,"NORMAL",0.42],["CDISCPILOT01","1028","01-701-1028","Xanomeline High Dose",81,"Xanomeline High Dose",81,"2013-07-19","2014-01-14",71,"65-80",2,"WHITE",1,"M","Y","","Y","          Week 6",6,42,"2013-08-29","WEEK 6",7,"Eosinophils (GI/L)","EOS",9,"HEM",0.17,0.12,0.05,null,0.57,null,0.298245614035,null,0.210526315789,"",0.685,"N","N","","",115,"NORMAL",0.17],["CDISCPILOT01","1028","01-701-1028","Xanomeline High Dose",81,"Xanomeline High Dose",81,"2013-07-19","2014-01-14",71,"65-80",2,"WHITE",1,"M","Y","","Y","          Week 6",6,42,"2013-08-29","WEEK 6",7,"Basophils (GI/L)","BASO",10,"HEM",0.04,0.06,-0.02,null,0.2,null,0.2,null,0.3,"",0.26,"N","N","","",107,"NORMAL",0.04],["CDISCPILOT01","1028","01-701-1028","Xanomeline High Dose",81,"Xanomeline High Dose",81,"2013-07-19","2014-01-14",71,"65-80",2,"WHITE",1,"M","Y","","Y","          Week 6",6,42,"2013-08-29","WEEK 6",7,"Platelet (GI/L)","PLAT",11,"HEM",181,168,13,130,394,1.39230769231,0.459390862944,1.29230769231,0.426395939086,"",410,"N","N","","",128,"NORMAL",181],["CDISCPILOT01","1028","01-701-1028","Xanomeline High Dose",81,"Xanomeline High Dose",81,"2013-07-19","2014-01-14",71,"65-80",2,"WHITE",1,"M","Y","","Y","          Week 6",6,42,"2013-08-29","WEEK 6",7,"Erythrocytes (TI/L)","RBC",12,"HEM",4.6,4.5,0.1,4,5.8,1.15,0.793103448276,1.125,0.775862068966,"",4.1,"N","N","","",130,"NORMAL",4.6],["CDISCPILOT01","1028","01-701-1028","Xanomeline High Dose",81,"Xanomeline High Dose",81,"2013-07-19","2014-01-14",71,"65-80",2,"WHITE",1,"M","Y","","Y","          Week 6",6,42,"2013-08-29","WEEK 6",7,"Hemoglobin (mmol/L) change from previous visit, relative to normal range","_HGB",101,"HEM",0.2,null,null,null,null,null,null,null,null,"",5.98754,"N","","","",119,"NORMAL",9.86754],["CDISCPILOT01","1028","01-701-1028","Xanomeline High Dose",81,"Xanomeline High Dose",81,"2013-07-19","2014-01-14",71,"65-80",2,"WHITE",1,"M","Y","","Y","          Week 6",6,42,"2013-08-29","WEEK 6",7,"Hematocrit change from previous visit, relative to normal range","_HCT",102,"HEM",0.3,null,null,null,null,null,null,null,null,"",0.295,"N","","","",118,"NORMAL",0.47],["CDISCPILOT01","1028","01-701-1028","Xanomeline High Dose",81,"Xanomeline High Dose",81,"2013-07-19","2014-01-14",71,"65-80",2,"WHITE",1,"M","Y","","Y","          Week 6",6,42,"2013-08-29","WEEK 6",7,"Ery. Mean Corpuscular Volume (fL) change from previous visit, relative to normal range","_MCV",103,"HEM",0,null,null,null,null,null,null,null,null,"",61,"N","","","",124,"HIGH",101],["CDISCPILOT01","1028","01-701-1028","Xanomeline High Dose",81,"Xanomeline High Dose",81,"2013-07-19","2014-01-14",71,"65-80",2,"WHITE",1,"M","Y","","Y","          Week 6",6,42,"2013-08-29","WEEK 6",7,"Ery. Mean Corpuscular Hemoglobin (fmol(Fe)) change from previous visit, relative to normal range","_MCH",104,"HEM",-0.2,null,null,null,null,null,null,null,null,"",1.31004,"N","","","",122,"NORMAL",2.11004],["CDISCPILOT01","1028","01-701-1028","Xanomeline High Dose",81,"Xanomeline High Dose",81,"2013-07-19","2014-01-14",71,"65-80",2,"WHITE",1,"M","Y","","Y","          Week 6",6,42,"2013-08-29","WEEK 6",7,"Ery. Mean Corpuscular HGB Concentration (mmol/L) change from previous visit, relative to normal rang","_MCHC",105,"HEM",0,null,null,null,null,null,null,null,null,"",14.8996,"N","","","",123,"NORMAL",21.1004],["CDISCPILOT01","1028","01-701-1028","Xanomeline High Dose",81,"Xanomeline High Dose",81,"2013-07-19","2014-01-14",71,"65-80",2,"WHITE",1,"M","Y","","Y","          Week 6",6,42,"2013-08-29","WEEK 6",7,"Leukocytes (GI/L) change from previous visit, relative to normal range","_WBC",106,"HEM",0,null,null,null,null,null,null,null,null,"",10.43,"N","","","",132,"NORMAL",5.62],["CDISCPILOT01","1028","01-701-1028","Xanomeline High Dose",81,"Xanomeline High Dose",81,"2013-07-19","2014-01-14",71,"65-80",2,"WHITE",1,"M","Y","","Y","          Week 6",6,42,"2013-08-29","WEEK 6",7,"Lymphocytes (GI/L) change from previous visit, relative to normal range","_LYM",107,"HEM",0,null,null,null,null,null,null,null,null,"",2.53,"N","","","",121,"NORMAL",1.97],["CDISCPILOT01","1028","01-701-1028","Xanomeline High Dose",81,"Xanomeline High Dose",81,"2013-07-19","2014-01-14",71,"65-80",2,"WHITE",1,"M","Y","","Y","          Week 6",6,42,"2013-08-29","WEEK 6",7,"Monocytes (GI/L) change from previous visit, relative to normal range","_MONO",108,"HEM",-0.6,null,null,null,null,null,null,null,null,"Y",0.96,"N","","","",125,"NORMAL",0.42],["CDISCPILOT01","1028","01-701-1028","Xanomeline High Dose",81,"Xanomeline High Dose",81,"2013-07-19","2014-01-14",71,"65-80",2,"WHITE",1,"M","Y","","Y","          Week 6",6,42,"2013-08-29","WEEK 6",7,"Eosinophils (GI/L) change from previous visit, relative to normal range","_EOS",109,"HEM",-0.1,null,null,null,null,null,null,null,null,"",0.685,"N","","","",115,"NORMAL",0.17],["CDISCPILOT01","1028","01-701-1028","Xanomeline High Dose",81,"Xanomeline High Dose",81,"2013-07-19","2014-01-14",71,"65-80",2,"WHITE",1,"M","Y","","Y","          Week 6",6,42,"2013-08-29","WEEK 6",7,"Basophils (GI/L) change from previous visit, relative to normal range","_BASO",110,"HEM",0,null,null,null,null,null,null,null,null,"",0.26,"N","","","",107,"NORMAL",0.04],["CDISCPILOT01","1028","01-701-1028","Xanomeline High Dose",81,"Xanomeline High Dose",81,"2013-07-19","2014-01-14",71,"65-80",2,"WHITE",1,"M","Y","","Y","          Week 6",6,42,"2013-08-29","WEEK 6",7,"Platelet (GI/L) change from previous visit, relative to normal range","_PLAT",111,"HEM",0.2,null,null,null,null,null,null,null,null,"",410,"N","","","",128,"NORMAL",181],["CDISCPILOT01","1028","01-701-1028","Xanomeline High Dose",81,"Xanomeline High Dose",81,"2013-07-19","2014-01-14",71,"65-80",2,"WHITE",1,"M","Y","","Y","          Week 6",6,42,"2013-08-29","WEEK 6",7,"Erythrocytes (TI/L) change from previous visit, relative to normal range","_RBC",112,"HEM",0.1,null,null,null,null,null,null,null,null,"",4.1,"N","","","",130,"NORMAL",4.6],["CDISCPILOT01","1028","01-701-1028","Xanomeline High Dose",81,"Xanomeline High Dose",81,"2013-07-19","2014-01-14",71,"65-80",2,"WHITE",1,"M","Y","","Y","          Week 8",8,54,"2013-09-10","WEEK 8",8,"Hemoglobin (mmol/L)","HGB",1,"HEM",9.68136,10.42608,-0.74472,7.76,10.55,1.24759793814,0.917664454976,1.34356701031,0.988254028436,"",6.14364,"N","N","","",149,"NORMAL",9.68136],["CDISCPILOT01","1028","01-701-1028","Xanomeline High Dose",81,"Xanomeline High Dose",81,"2013-07-19","2014-01-14",71,"65-80",2,"WHITE",1,"M","Y","","Y","          Week 8",8,54,"2013-09-10","WEEK 8",8,"Hematocrit","HCT",2,"HEM",0.45,0.47,-0.02,0.37,0.51,1.21621621622,0.882352941176,1.27027027027,0.921568627451,"",0.315,"N","N","","",148,"NORMAL",0.45],["CDISCPILOT01","1028","01-701-1028","Xanomeline High Dose",81,"Xanomeline High Dose",81,"2013-07-19","2014-01-14",71,"65-80",2,"WHITE",1,"M","Y","","Y","          Week 8",8,54,"2013-09-10","WEEK 8",8,"Ery. Mean Corpuscular Volume (fL)","MCV",3,"HEM",100,104,-4,80,100,1.25,1,1.3,1.04,"",60,"N","N","","",154,"NORMAL",100],["CDISCPILOT01","1028","01-701-1028","Xanomeline High Dose",81,"Xanomeline High Dose",81,"2013-07-19","2014-01-14",71,"65-80",2,"WHITE",1,"M","Y","","Y","          Week 8",8,54,"2013-09-10","WEEK 8",8,"Ery. Mean Corpuscular Hemoglobin (fmol(Fe))","MCH",4,"HEM",2.1721,2.29622,-0.12412,1.6,2.1,1.3575625,1.03433333333,1.4351375,1.09343809524,"",1.3721,"N","N","","",152,"HIGH",2.1721],["CDISCPILOT01","1028","01-701-1028","Xanomeline High Dose",81,"Xanomeline High Dose",81,"2013-07-19","2014-01-14",71,"65-80",2,"WHITE",1,"M","Y","","Y","          Week 8",8,54,"2013-09-10","WEEK 8",8,"Ery. Mean Corpuscular HGB Concentration (mmol/L)","MCHC",5,"HEM",21.721,22.3416,-0.6206,19,24,1.14321052632,0.905041666667,1.17587368421,0.9309,"",14.279,"N","N","","",153,"NORMAL",21.721],["CDISCPILOT01","1028","01-701-1028","Xanomeline High Dose",81,"Xanomeline High Dose",81,"2013-07-19","2014-01-14",71,"65-80",2,"WHITE",1,"M","Y","","Y","          Week 8",8,54,"2013-09-10","WEEK 8",8,"Leukocytes (GI/L)","WBC",6,"HEM",5.63,5.05,0.58,3.8,10.7,1.48157894737,0.526168224299,1.32894736842,0.471962616822,"",10.42,"N","N","","",162,"NORMAL",5.63],["CDISCPILOT01","1028","01-701-1028","Xanomeline High Dose",81,"Xanomeline High Dose",81,"2013-07-19","2014-01-14",71,"65-80",2,"WHITE",1,"M","Y","","Y","          Week 8",8,54,"2013-09-10","WEEK 8",8,"Lymphocytes (GI/L)","LYM",7,"HEM",2.05,1.97,0.08,0.8,3,2.5625,0.683333333333,2.4625,0.656666666667,"",2.45,"N","N","","",151,"NORMAL",2.05],["CDISCPILOT01","1028","01-701-1028","Xanomeline High Dose",81,"Xanomeline High Dose",81,"2013-07-19","2014-01-14",71,"65-80",2,"WHITE",1,"M","Y","","Y","          Week 8",8,54,"2013-09-10","WEEK 8",8,"Monocytes (GI/L)","MONO",8,"HEM",0.66,0.43,0.23,0.12,0.92,5.5,0.717391304348,3.58333333333,0.467391304348,"",0.72,"N","N","","",155,"NORMAL",0.66],["CDISCPILOT01","1028","01-701-1028","Xanomeline High Dose",81,"Xanomeline High Dose",81,"2013-07-19","2014-01-14",71,"65-80",2,"WHITE",1,"M","Y","","Y","          Week 8",8,54,"2013-09-10","WEEK 8",8,"Eosinophils (GI/L)","EOS",9,"HEM",0.26,0.12,0.14,null,0.57,null,0.456140350877,null,0.210526315789,"",0.595,"N","N","","",145,"NORMAL",0.26],["CDISCPILOT01","1028","01-701-1028","Xanomeline High Dose",81,"Xanomeline High Dose",81,"2013-07-19","2014-01-14",71,"65-80",2,"WHITE",1,"M","Y","","Y","          Week 8",8,54,"2013-09-10","WEEK 8",8,"Basophils (GI/L)","BASO",10,"HEM",0.04,0.06,-0.02,null,0.2,null,0.2,null,0.3,"",0.26,"N","N","","",137,"NORMAL",0.04],["CDISCPILOT01","1028","01-701-1028","Xanomeline High Dose",81,"Xanomeline High Dose",81,"2013-07-19","2014-01-14",71,"65-80",2,"WHITE",1,"M","Y","","Y","          Week 8",8,54,"2013-09-10","WEEK 8",8,"Platelet (GI/L)","PLAT",11,"HEM",176,168,8,130,394,1.35384615385,0.446700507614,1.29230769231,0.426395939086,"",415,"N","N","","",158,"NORMAL",176],["CDISCPILOT01","1028","01-701-1028","Xanomeline High Dose",81,"Xanomeline High Dose",81,"2013-07-19","2014-01-14",71,"65-80",2,"WHITE",1,"M","Y","","Y","          Week 8",8,54,"2013-09-10","WEEK 8",8,"Erythrocytes (TI/L)","RBC",12,"HEM",4.5,4.5,0,4,5.8,1.125,0.775862068966,1.125,0.775862068966,"",4.2,"N","N","","",160,"NORMAL",4.5],["CDISCPILOT01","1028","01-701-1028","Xanomeline High Dose",81,"Xanomeline High Dose",81,"2013-07-19","2014-01-14",71,"65-80",2,"WHITE",1,"M","Y","","Y","          Week 8",8,54,"2013-09-10","WEEK 8",8,"Hemoglobin (mmol/L) change from previous visit, relative to normal range","_HGB",101,"HEM",-0.1,null,null,null,null,null,null,null,null,"",6.14364,"N","","","",149,"NORMAL",9.68136],["CDISCPILOT01","1028","01-701-1028","Xanomeline High Dose",81,"Xanomeline High Dose",81,"2013-07-19","2014-01-14",71,"65-80",2,"WHITE",1,"M","Y","","Y","          Week 8",8,54,"2013-09-10","WEEK 8",8,"Hematocrit change from previous visit, relative to normal range","_HCT",102,"HEM",-0.3,null,null,null,null,null,null,null,null,"",0.315,"N","","","",148,"NORMAL",0.45],["CDISCPILOT01","1028","01-701-1028","Xanomeline High Dose",81,"Xanomeline High Dose",81,"2013-07-19","2014-01-14",71,"65-80",2,"WHITE",1,"M","Y","","Y","          Week 8",8,54,"2013-09-10","WEEK 8",8,"Ery. Mean Corpuscular Volume (fL) change from previous visit, relative to normal range","_MCV",103,"HEM",-0.1,null,null,null,null,null,null,null,null,"",60,"N","","","",154,"NORMAL",100],["CDISCPILOT01","1028","01-701-1028","Xanomeline High Dose",81,"Xanomeline High Dose",81,"2013-07-19","2014-01-14",71,"65-80",2,"WHITE",1,"M","Y","","Y","          Week 8",8,54,"2013-09-10","WEEK 8",8,"Ery. Mean Corpuscular Hemoglobin (fmol(Fe)) change from previous visit, relative to normal range","_MCH",104,"HEM",0.2,null,null,null,null,null,null,null,null,"",1.3721,"N","","","",152,"HIGH",2.1721],["CDISCPILOT01","1028","01-701-1028","Xanomeline High Dose",81,"Xanomeline High Dose",81,"2013-07-19","2014-01-14",71,"65-80",2,"WHITE",1,"M","Y","","Y","          Week 8",8,54,"2013-09-10","WEEK 8",8,"Ery. Mean Corpuscular HGB Concentration (mmol/L) change from previous visit, relative to normal rang","_MCHC",105,"HEM",0.2,null,null,null,null,null,null,null,null,"",14.279,"N","","","",153,"NORMAL",21.721],["CDISCPILOT01","1028","01-701-1028","Xanomeline High Dose",81,"Xanomeline High Dose",81,"2013-07-19","2014-01-14",71,"65-80",2,"WHITE",1,"M","Y","","Y","          Week 8",8,54,"2013-09-10","WEEK 8",8,"Leukocytes (GI/L) change from previous visit, relative to normal range","_WBC",106,"HEM",0,null,null,null,null,null,null,null,null,"",10.42,"N","","","",162,"NORMAL",5.63],["CDISCPILOT01","1028","01-701-1028","Xanomeline High Dose",81,"Xanomeline High Dose",81,"2013-07-19","2014-01-14",71,"65-80",2,"WHITE",1,"M","Y","","Y","          Week 8",8,54,"2013-09-10","WEEK 8",8,"Lymphocytes (GI/L) change from previous visit, relative to normal range","_LYM",107,"HEM",0.1,null,null,null,null,null,null,null,null,"",2.45,"N","","","",151,"NORMAL",2.05],["CDISCPILOT01","1028","01-701-1028","Xanomeline High Dose",81,"Xanomeline High Dose",81,"2013-07-19","2014-01-14",71,"65-80",2,"WHITE",1,"M","Y","","Y","          Week 8",8,54,"2013-09-10","WEEK 8",8,"Monocytes (GI/L) change from previous visit, relative to normal range","_MONO",108,"HEM",0.6,null,null,null,null,null,null,null,null,"",0.72,"N","","","",155,"NORMAL",0.66],["CDISCPILOT01","1028","01-701-1028","Xanomeline High Dose",81,"Xanomeline High Dose",81,"2013-07-19","2014-01-14",71,"65-80",2,"WHITE",1,"M","Y","","Y","          Week 8",8,54,"2013-09-10","WEEK 8",8,"Eosinophils (GI/L) change from previous visit, relative to normal range","_EOS",109,"HEM",0.3,null,null,null,null,null,null,null,null,"",0.595,"N","","","",145,"NORMAL",0.26],["CDISCPILOT01","1028","01-701-1028","Xanomeline High Dose",81,"Xanomeline High Dose",81,"2013-07-19","2014-01-14",71,"65-80",2,"WHITE",1,"M","Y","","Y","          Week 8",8,54,"2013-09-10","WEEK 8",8,"Basophils (GI/L) change from previous visit, relative to normal range","_BASO",110,"HEM",0,null,null,null,null,null,null,null,null,"",0.26,"N","","","",137,"NORMAL",0.04],["CDISCPILOT01","1028","01-701-1028","Xanomeline High Dose",81,"Xanomeline High Dose",81,"2013-07-19","2014-01-14",71,"65-80",2,"WHITE",1,"M","Y","","Y","          Week 8",8,54,"2013-09-10","WEEK 8",8,"Platelet (GI/L) change from previous visit, relative to normal range","_PLAT",111,"HEM",0,null,null,null,null,null,null,null,null,"",415,"N","","","",158,"NORMAL",176],["CDISCPILOT01","1028","01-701-1028","Xanomeline High Dose",81,"Xanomeline High Dose",81,"2013-07-19","2014-01-14",71,"65-80",2,"WHITE",1,"M","Y","","Y","          Week 8",8,54,"2013-09-10","WEEK 8",8,"Erythrocytes (TI/L) change from previous visit, relative to normal range","_RBC",112,"HEM",-0.1,null,null,null,null,null,null,null,null,"",4.2,"N","","","",160,"NORMAL",4.5],["CDISCPILOT01","1028","01-701-1028","Xanomeline High Dose",81,"Xanomeline High Dose",81,"2013-07-19","2014-01-14",71,"65-80",2,"WHITE",1,"M","Y","","Y","         Week 12",12,83,"2013-10-09","WEEK 12",9,"Hemoglobin (mmol/L)","HGB",1,"HEM",10.11578,10.42608,-0.3103,7.76,10.55,1.30357989691,0.958841706161,1.34356701031,0.988254028436,"",6.23578,"N","N","","",180,"NORMAL",10.11578],["CDISCPILOT01","1028","01-701-1028","Xanomeline High Dose",81,"Xanomeline High Dose",81,"2013-07-19","2014-01-14",71,"65-80",2,"WHITE",1,"M","Y","","Y","         Week 12",12,83,"2013-10-09","WEEK 12",9,"Hematocrit","HCT",2,"HEM",0.49,0.47,0.02,0.37,0.51,1.32432432432,0.960784313725,1.27027027027,0.921568627451,"",0.305,"N","N","","",179,"NORMAL",0.49],["CDISCPILOT01","1028","01-701-1028","Xanomeline High Dose",81,"Xanomeline High Dose",81,"2013-07-19","2014-01-14",71,"65-80",2,"WHITE",1,"M","Y","","Y","         Week 12",12,83,"2013-10-09","WEEK 12",9,"Ery. Mean Corpuscular Volume (fL)","MCV",3,"HEM",103,104,-1,80,100,1.2875,1.03,1.3,1.04,"",63,"N","N","","",186,"HIGH",103],["CDISCPILOT01","1028","01-701-1028","Xanomeline High Dose",81,"Xanomeline High Dose",81,"2013-07-19","2014-01-14",71,"65-80",2,"WHITE",1,"M","Y","","Y","         Week 12",12,83,"2013-10-09","WEEK 12",9,"Ery. Mean Corpuscular Hemoglobin (fmol(Fe))","MCH",4,"HEM",2.11004,2.29622,-0.18618,1.6,2.1,1.318775,1.00478095238,1.4351375,1.09343809524,"",1.31004,"N","N","","",184,"NORMAL",2.11004],["CDISCPILOT01","1028","01-701-1028","Xanomeline High Dose",81,"Xanomeline High Dose",81,"2013-07-19","2014-01-14",71,"65-80",2,"WHITE",1,"M","Y","","Y","         Week 12",12,83,"2013-10-09","WEEK 12",9,"Ery. Mean Corpuscular HGB Concentration (mmol/L)","MCHC",5,"HEM",20.4798,22.3416,-1.8618,19,24,1.07788421053,0.853325,1.17587368421,0.9309,"Y",15.5202,"N","N","","",185,"NORMAL",20.4798],["CDISCPILOT01","1028","01-701-1028","Xanomeline High Dose",81,"Xanomeline High Dose",81,"2013-07-19","2014-01-14",71,"65-80",2,"WHITE",1,"M","Y","","Y","         Week 12",12,83,"2013-10-09","WEEK 12",9,"Leukocytes (GI/L)","WBC",6,"HEM",5.61,5.05,0.56,3.8,10.7,1.47631578947,0.524299065421,1.32894736842,0.471962616822,"",10.44,"N","N","","",197,"NORMAL",5.61],["CDISCPILOT01","1028","01-701-1028","Xanomeline High Dose",81,"Xanomeline High Dose",81,"2013-07-19","2014-01-14",71,"65-80",2,"WHITE",1,"M","Y","","Y","         Week 12",12,83,"2013-10-09","WEEK 12",9,"Lymphocytes (GI/L)","LYM",7,"HEM",1.71,1.97,-0.26,0.8,3,2.1375,0.57,2.4625,0.656666666667,"",2.79,"N","N","","",183,"NORMAL",1.71],["CDISCPILOT01","1028","01-701-1028","Xanomeline High Dose",81,"Xanomeline High Dose",81,"2013-07-19","2014-01-14",71,"65-80",2,"WHITE",1,"M","Y","","Y","         Week 12",12,83,"2013-10-09","WEEK 12",9,"Monocytes (GI/L)","MONO",8,"HEM",0.5,0.43,0.07,0.12,0.92,4.16666666667,0.54347826087,3.58333333333,0.467391304348,"",0.88,"N","N","","",187,"NORMAL",0.5],["CDISCPILOT01","1028","01-701-1028","Xanomeline High Dose",81,"Xanomeline High Dose",81,"2013-07-19","2014-01-14",71,"65-80",2,"WHITE",1,"M","Y","","Y","         Week 12",12,83,"2013-10-09","WEEK 12",9,"Eosinophils (GI/L)","EOS",9,"HEM",0.17,0.12,0.05,null,0.57,null,0.298245614035,null,0.210526315789,"",0.685,"N","N","","",176,"NORMAL",0.17],["CDISCPILOT01","1028","01-701-1028","Xanomeline High Dose",81,"Xanomeline High Dose",81,"2013-07-19","2014-01-14",71,"65-80",2,"WHITE",1,"M","Y","","Y","         Week 12",12,83,"2013-10-09","WEEK 12",9,"Basophils (GI/L)","BASO",10,"HEM",0.07,0.06,0.01,null,0.2,null,0.35,null,0.3,"",0.23,"N","N","","",167,"NORMAL",0.07],["CDISCPILOT01","1028","01-701-1028","Xanomeline High Dose",81,"Xanomeline High Dose",81,"2013-07-19","2014-01-14",71,"65-80",2,"WHITE",1,"M","Y","","Y","         Week 12",12,83,"2013-10-09","WEEK 12",9,"Platelet (GI/L)","PLAT",11,"HEM",167,168,-1,130,394,1.28461538462,0.42385786802,1.29230769231,0.426395939086,"",424,"N","N","","",191,"NORMAL",167],["CDISCPILOT01","1028","01-701-1028","Xanomeline High Dose",81,"Xanomeline High Dose",81,"2013-07-19","2014-01-14",71,"65-80",2,"WHITE",1,"M","Y","","Y","         Week 12",12,83,"2013-10-09","WEEK 12",9,"Erythrocytes (TI/L)","RBC",12,"HEM",4.8,4.5,0.3,4,5.8,1.2,0.827586206897,1.125,0.775862068966,"",3.9,"N","N","","",193,"NORMAL",4.8],["CDISCPILOT01","1028","01-701-1028","Xanomeline High Dose",81,"Xanomeline High Dose",81,"2013-07-19","2014-01-14",71,"65-80",2,"WHITE",1,"M","Y","","Y","         Week 12",12,83,"2013-10-09","WEEK 12",9,"Hemoglobin (mmol/L) change from previous visit, relative to normal range","_HGB",101,"HEM",0.3,null,null,null,null,null,null,null,null,"",6.23578,"N","","","",180,"NORMAL",10.11578],["CDISCPILOT01","1028","01-701-1028","Xanomeline High Dose",81,"Xanomeline High Dose",81,"2013-07-19","2014-01-14",71,"65-80",2,"WHITE",1,"M","Y","","Y","         Week 12",12,83,"2013-10-09","WEEK 12",9,"Hematocrit change from previous visit, relative to normal range","_HCT",102,"HEM",0.6,null,null,null,null,null,null,null,null,"",0.305,"N","","","",179,"NORMAL",0.49],["CDISCPILOT01","1028","01-701-1028","Xanomeline High Dose",81,"Xanomeline High Dose",81,"2013-07-19","2014-01-14",71,"65-80",2,"WHITE",1,"M","Y","","Y","         Week 12",12,83,"2013-10-09","WEEK 12",9,"Ery. Mean Corpuscular Volume (fL) change from previous visit, relative to normal range","_MCV",103,"HEM",0.3,null,null,null,null,null,null,null,null,"",63,"N","","","",186,"HIGH",103],["CDISCPILOT01","1028","01-701-1028","Xanomeline High Dose",81,"Xanomeline High Dose",81,"2013-07-19","2014-01-14",71,"65-80",2,"WHITE",1,"M","Y","","Y","         Week 12",12,83,"2013-10-09","WEEK 12",9,"Ery. Mean Corpuscular Hemoglobin (fmol(Fe)) change from previous visit, relative to normal range","_MCH",104,"HEM",-0.2,null,null,null,null,null,null,null,null,"",1.31004,"N","","","",184,"NORMAL",2.11004],["CDISCPILOT01","1028","01-701-1028","Xanomeline High Dose",81,"Xanomeline High Dose",81,"2013-07-19","2014-01-14",71,"65-80",2,"WHITE",1,"M","Y","","Y","         Week 12",12,83,"2013-10-09","WEEK 12",9,"Ery. Mean Corpuscular HGB Concentration (mmol/L) change from previous visit, relative to normal rang","_MCHC",105,"HEM",-0.5,null,null,null,null,null,null,null,null,"Y",15.5202,"N","","","",185,"NORMAL",20.4798],["CDISCPILOT01","1028","01-701-1028","Xanomeline High Dose",81,"Xanomeline High Dose",81,"2013-07-19","2014-01-14",71,"65-80",2,"WHITE",1,"M","Y","","Y","         Week 12",12,83,"2013-10-09","WEEK 12",9,"Leukocytes (GI/L) change from previous visit, relative to normal range","_WBC",106,"HEM",0,null,null,null,null,null,null,null,null,"",10.44,"N","","","",197,"NORMAL",5.61],["CDISCPILOT01","1028","01-701-1028","Xanomeline High Dose",81,"Xanomeline High Dose",81,"2013-07-19","2014-01-14",71,"65-80",2,"WHITE",1,"M","Y","","Y","         Week 12",12,83,"2013-10-09","WEEK 12",9,"Lymphocytes (GI/L) change from previous visit, relative to normal range","_LYM",107,"HEM",-0.3,null,null,null,null,null,null,null,null,"",2.79,"N","","","",183,"NORMAL",1.71],["CDISCPILOT01","1028","01-701-1028","Xanomeline High Dose",81,"Xanomeline High Dose",81,"2013-07-19","2014-01-14",71,"65-80",2,"WHITE",1,"M","Y","","Y","         Week 12",12,83,"2013-10-09","WEEK 12",9,"Monocytes (GI/L) change from previous visit, relative to normal range","_MONO",108,"HEM",-0.4,null,null,null,null,null,null,null,null,"",0.88,"N","","","",187,"NORMAL",0.5],["CDISCPILOT01","1028","01-701-1028","Xanomeline High Dose",81,"Xanomeline High Dose",81,"2013-07-19","2014-01-14",71,"65-80",2,"WHITE",1,"M","Y","","Y","         Week 12",12,83,"2013-10-09","WEEK 12",9,"Eosinophils (GI/L) change from previous visit, relative to normal range","_EOS",109,"HEM",-0.3,null,null,null,null,null,null,null,null,"",0.685,"N","","","",176,"NORMAL",0.17],["CDISCPILOT01","1028","01-701-1028","Xanomeline High Dose",81,"Xanomeline High Dose",81,"2013-07-19","2014-01-14",71,"65-80",2,"WHITE",1,"M","Y","","Y","         Week 12",12,83,"2013-10-09","WEEK 12",9,"Basophils (GI/L) change from previous visit, relative to normal range","_BASO",110,"HEM",0.3,null,null,null,null,null,null,null,null,"Y",0.23,"N","","","",167,"NORMAL",0.07],["CDISCPILOT01","1028","01-701-1028","Xanomeline High Dose",81,"Xanomeline High Dose",81,"2013-07-19","2014-01-14",71,"65-80",2,"WHITE",1,"M","Y","","Y","         Week 12",12,83,"2013-10-09","WEEK 12",9,"Platelet (GI/L) change from previous visit, relative to normal range","_PLAT",111,"HEM",-0.1,null,null,null,null,null,null,null,null,"",424,"N","","","",191,"NORMAL",167],["CDISCPILOT01","1028","01-701-1028","Xanomeline High Dose",81,"Xanomeline High Dose",81,"2013-07-19","2014-01-14",71,"65-80",2,"WHITE",1,"M","Y","","Y","         Week 12",12,83,"2013-10-09","WEEK 12",9,"Erythrocytes (TI/L) change from previous visit, relative to normal range","_RBC",112,"HEM",0.3,null,null,null,null,null,null,null,null,"",3.9,"N","","","",193,"NORMAL",4.8],["CDISCPILOT01","1028","01-701-1028","Xanomeline High Dose",81,"Xanomeline High Dose",81,"2013-07-19","2014-01-14",71,"65-80",2,"WHITE",1,"M","Y","","Y","         Week 16",16,111,"2013-11-06","WEEK 16",10,"Hemoglobin (mmol/L)","HGB",1,"HEM",9.24694,10.42608,-1.17914,7.76,10.55,1.19161597938,0.876487203791,1.34356701031,0.988254028436,"Y",6.57806,"N","N","","",215,"NORMAL",9.24694],["CDISCPILOT01","1028","01-701-1028","Xanomeline High Dose",81,"Xanomeline High Dose",81,"2013-07-19","2014-01-14",71,"65-80",2,"WHITE",1,"M","Y","","Y","         Week 16",16,111,"2013-11-06","WEEK 16",10,"Hematocrit","HCT",2,"HEM",0.43,0.47,-0.04,0.37,0.51,1.16216216216,0.843137254902,1.27027027027,0.921568627451,"Y",0.335,"N","N","","",214,"NORMAL",0.43],["CDISCPILOT01","1028","01-701-1028","Xanomeline High Dose",81,"Xanomeline High Dose",81,"2013-07-19","2014-01-14",71,"65-80",2,"WHITE",1,"M","Y","","Y","         Week 16",16,111,"2013-11-06","WEEK 16",10,"Ery. Mean Corpuscular Volume (fL)","MCV",3,"HEM",102,104,-2,80,100,1.275,1.02,1.3,1.04,"",62,"N","N","","",221,"HIGH",102],["CDISCPILOT01","1028","01-701-1028","Xanomeline High Dose",81,"Xanomeline High Dose",81,"2013-07-19","2014-01-14",71,"65-80",2,"WHITE",1,"M","Y","","Y","         Week 16",16,111,"2013-11-06","WEEK 16",10,"Ery. Mean Corpuscular Hemoglobin (fmol(Fe))","MCH",4,"HEM",2.1721,2.29622,-0.12412,1.6,2.1,1.3575625,1.03433333333,1.4351375,1.09343809524,"",1.3721,"N","N","","",219,"HIGH",2.1721],["CDISCPILOT01","1028","01-701-1028","Xanomeline High Dose",81,"Xanomeline High Dose",81,"2013-07-19","2014-01-14",71,"65-80",2,"WHITE",1,"M","Y","","Y","         Week 16",16,111,"2013-11-06","WEEK 16",10,"Ery. Mean Corpuscular HGB Concentration (mmol/L)","MCHC",5,"HEM",21.721,22.3416,-0.6206,19,24,1.14321052632,0.905041666667,1.17587368421,0.9309,"",14.279,"N","N","","",220,"NORMAL",21.721],["CDISCPILOT01","1028","01-701-1028","Xanomeline High Dose",81,"Xanomeline High Dose",81,"2013-07-19","2014-01-14",71,"65-80",2,"WHITE",1,"M","Y","","Y","         Week 16",16,111,"2013-11-06","WEEK 16",10,"Leukocytes (GI/L)","WBC",6,"HEM",4.66,5.05,-0.39,3.8,10.7,1.22631578947,0.435514018692,1.32894736842,0.471962616822,"Y",11.39,"N","N","","",229,"NORMAL",4.66],["CDISCPILOT01","1028","01-701-1028","Xanomeline High Dose",81,"Xanomeline High Dose",81,"2013-07-19","2014-01-14",71,"65-80",2,"WHITE",1,"M","Y","","Y","         Week 16",16,111,"2013-11-06","WEEK 16",10,"Lymphocytes (GI/L)","LYM",7,"HEM",1.46,1.97,-0.51,0.8,3,1.825,0.486666666667,2.4625,0.656666666667,"Y",3.04,"N","N","","",217,"NORMAL",1.46],["CDISCPILOT01","1028","01-701-1028","Xanomeline High Dose",81,"Xanomeline High Dose",81,"2013-07-19","2014-01-14",71,"65-80",2,"WHITE",1,"M","Y","","Y","         Week 16",16,111,"2013-11-06","WEEK 16",10,"Monocytes (GI/L)","MONO",8,"HEM",0.44,0.43,0.01,0.12,0.92,3.66666666667,0.478260869565,3.58333333333,0.467391304348,"",0.94,"N","N","","",222,"NORMAL",0.44],["CDISCPILOT01","1028","01-701-1028","Xanomeline High Dose",81,"Xanomeline High Dose",81,"2013-07-19","2014-01-14",71,"65-80",2,"WHITE",1,"M","Y","","Y","         Week 16",16,111,"2013-11-06","WEEK 16",10,"Eosinophils (GI/L)","EOS",9,"HEM",0.18,0.12,0.06,null,0.57,null,0.315789473684,null,0.210526315789,"",0.675,"N","N","","",211,"NORMAL",0.18],["CDISCPILOT01","1028","01-701-1028","Xanomeline High Dose",81,"Xanomeline High Dose",81,"2013-07-19","2014-01-14",71,"65-80",2,"WHITE",1,"M","Y","","Y","         Week 16",16,111,"2013-11-06","WEEK 16",10,"Basophils (GI/L)","BASO",10,"HEM",0.05,0.06,-0.01,null,0.2,null,0.25,null,0.3,"",0.25,"N","N","","",203,"NORMAL",0.05],["CDISCPILOT01","1028","01-701-1028","Xanomeline High Dose",81,"Xanomeline High Dose",81,"2013-07-19","2014-01-14",71,"65-80",2,"WHITE",1,"M","Y","","Y","         Week 16",16,111,"2013-11-06","WEEK 16",10,"Platelet (GI/L)","PLAT",11,"HEM",153,168,-15,130,394,1.17692307692,0.388324873096,1.29230769231,0.426395939086,"",438,"N","N","","",225,"NORMAL",153],["CDISCPILOT01","1028","01-701-1028","Xanomeline High Dose",81,"Xanomeline High Dose",81,"2013-07-19","2014-01-14",71,"65-80",2,"WHITE",1,"M","Y","","Y","         Week 16",16,111,"2013-11-06","WEEK 16",10,"Erythrocytes (TI/L)","RBC",12,"HEM",4.2,4.5,-0.3,4,5.8,1.05,0.724137931034,1.125,0.775862068966,"Y",4.5,"N","N","","",227,"NORMAL",4.2],["CDISCPILOT01","1028","01-701-1028","Xanomeline High Dose",81,"Xanomeline High Dose",81,"2013-07-19","2014-01-14",71,"65-80",2,"WHITE",1,"M","Y","","Y","         Week 16",16,111,"2013-11-06","WEEK 16",10,"Anisocytes","ANISO",13,"HEM",1,null,null,null,null,null,null,null,null,"",null,"H","","","",201,"ABNORMAL",1],["CDISCPILOT01","1028","01-701-1028","Xanomeline High Dose",81,"Xanomeline High Dose",81,"2013-07-19","2014-01-14",71,"65-80",2,"WHITE",1,"M","Y","","Y","         Week 16",16,111,"2013-11-06","WEEK 16",10,"Macrocytes","MACROCY",14,"HEM",1,null,null,null,null,null,null,null,null,"",null,"H","","","",218,"ABNORMAL",1],["CDISCPILOT01","1028","01-701-1028","Xanomeline High Dose",81,"Xanomeline High Dose",81,"2013-07-19","2014-01-14",71,"65-80",2,"WHITE",1,"M","Y","","Y","         Week 16",16,111,"2013-11-06","WEEK 16",10,"Hemoglobin (mmol/L) change from previous visit, relative to normal range","_HGB",101,"HEM",-0.6,null,null,null,null,null,null,null,null,"Y",6.57806,"N","","","",215,"NORMAL",9.24694],["CDISCPILOT01","1028","01-701-1028","Xanomeline High Dose",81,"Xanomeline High Dose",81,"2013-07-19","2014-01-14",71,"65-80",2,"WHITE",1,"M","Y","","Y","         Week 16",16,111,"2013-11-06","WEEK 16",10,"Hematocrit change from previous visit, relative to normal range","_HCT",102,"HEM",-0.9,null,null,null,null,null,null,null,null,"Y",0.335,"N","","","",214,"NORMAL",0.43],["CDISCPILOT01","1028","01-701-1028","Xanomeline High Dose",81,"Xanomeline High Dose",81,"2013-07-19","2014-01-14",71,"65-80",2,"WHITE",1,"M","Y","","Y","         Week 16",16,111,"2013-11-06","WEEK 16",10,"Ery. Mean Corpuscular Volume (fL) change from previous visit, relative to normal range","_MCV",103,"HEM",-0.1,null,null,null,null,null,null,null,null,"",62,"N","","","",221,"HIGH",102],["CDISCPILOT01","1028","01-701-1028","Xanomeline High Dose",81,"Xanomeline High Dose",81,"2013-07-19","2014-01-14",71,"65-80",2,"WHITE",1,"M","Y","","Y","         Week 16",16,111,"2013-11-06","WEEK 16",10,"Ery. Mean Corpuscular Hemoglobin (fmol(Fe)) change from previous visit, relative to normal range","_MCH",104,"HEM",0.2,null,null,null,null,null,null,null,null,"",1.3721,"N","","","",219,"HIGH",2.1721],["CDISCPILOT01","1028","01-701-1028","Xanomeline High Dose",81,"Xanomeline High Dose",81,"2013-07-19","2014-01-14",71,"65-80",2,"WHITE",1,"M","Y","","Y","         Week 16",16,111,"2013-11-06","WEEK 16",10,"Ery. Mean Corpuscular HGB Concentration (mmol/L) change from previous visit, relative to normal rang","_MCHC",105,"HEM",0.5,null,null,null,null,null,null,null,null,"",14.279,"N","","","",220,"NORMAL",21.721],["CDISCPILOT01","1028","01-701-1028","Xanomeline High Dose",81,"Xanomeline High Dose",81,"2013-07-19","2014-01-14",71,"65-80",2,"WHITE",1,"M","Y","","Y","         Week 16",16,111,"2013-11-06","WEEK 16",10,"Leukocytes (GI/L) change from previous visit, relative to normal range","_WBC",106,"HEM",-0.3,null,null,null,null,null,null,null,null,"Y",11.39,"N","","","",229,"NORMAL",4.66],["CDISCPILOT01","1028","01-701-1028","Xanomeline High Dose",81,"Xanomeline High Dose",81,"2013-07-19","2014-01-14",71,"65-80",2,"WHITE",1,"M","Y","","Y","         Week 16",16,111,"2013-11-06","WEEK 16",10,"Lymphocytes (GI/L) change from previous visit, relative to normal range","_LYM",107,"HEM",-0.2,null,null,null,null,null,null,null,null,"",3.04,"N","","","",217,"NORMAL",1.46],["CDISCPILOT01","1028","01-701-1028","Xanomeline High Dose",81,"Xanomeline High Dose",81,"2013-07-19","2014-01-14",71,"65-80",2,"WHITE",1,"M","Y","","Y","         Week 16",16,111,"2013-11-06","WEEK 16",10,"Monocytes (GI/L) change from previous visit, relative to normal range","_MONO",108,"HEM",-0.2,null,null,null,null,null,null,null,null,"",0.94,"N","","","",222,"NORMAL",0.44],["CDISCPILOT01","1028","01-701-1028","Xanomeline High Dose",81,"Xanomeline High Dose",81,"2013-07-19","2014-01-14",71,"65-80",2,"WHITE",1,"M","Y","","Y","         Week 16",16,111,"2013-11-06","WEEK 16",10,"Eosinophils (GI/L) change from previous visit, relative to normal range","_EOS",109,"HEM",0,null,null,null,null,null,null,null,null,"",0.675,"N","","","",211,"NORMAL",0.18],["CDISCPILOT01","1028","01-701-1028","Xanomeline High Dose",81,"Xanomeline High Dose",81,"2013-07-19","2014-01-14",71,"65-80",2,"WHITE",1,"M","Y","","Y","         Week 16",16,111,"2013-11-06","WEEK 16",10,"Basophils (GI/L) change from previous visit, relative to normal range","_BASO",110,"HEM",-0.2,null,null,null,null,null,null,null,null,"",0.25,"N","","","",203,"NORMAL",0.05],["CDISCPILOT01","1028","01-701-1028","Xanomeline High Dose",81,"Xanomeline High Dose",81,"2013-07-19","2014-01-14",71,"65-80",2,"WHITE",1,"M","Y","","Y","         Week 16",16,111,"2013-11-06","WEEK 16",10,"Platelet (GI/L) change from previous visit, relative to normal range","_PLAT",111,"HEM",-0.1,null,null,null,null,null,null,null,null,"",438,"N","","","",225,"NORMAL",153],["CDISCPILOT01","1028","01-701-1028","Xanomeline High Dose",81,"Xanomeline High Dose",81,"2013-07-19","2014-01-14",71,"65-80",2,"WHITE",1,"M","Y","","Y","         Week 16",16,111,"2013-11-06","WEEK 16",10,"Erythrocytes (TI/L) change from previous visit, relative to normal range","_RBC",112,"HEM",-0.7,null,null,null,null,null,null,null,null,"Y",4.5,"N","","","",227,"NORMAL",4.2],["CDISCPILOT01","1028","01-701-1028","Xanomeline High Dose",81,"Xanomeline High Dose",81,"2013-07-19","2014-01-14",71,"65-80",2,"WHITE",1,"M","Y","","Y","         Week 16",16,111,"2013-11-06","WEEK 16",10,"Anisocytes change from previous visit, relative to normal range","_ANISO",113,"HEM",null,null,null,null,null,null,null,null,null,"",null,"","","","",201,"ABNORMAL",1],["CDISCPILOT01","1028","01-701-1028","Xanomeline High Dose",81,"Xanomeline High Dose",81,"2013-07-19","2014-01-14",71,"65-80",2,"WHITE",1,"M","Y","","Y","         Week 16",16,111,"2013-11-06","WEEK 16",10,"Macrocytes change from previous visit, relative to normal range","_MACROCY",114,"HEM",null,null,null,null,null,null,null,null,null,"",null,"","","","",218,"ABNORMAL",1],["CDISCPILOT01","1028","01-701-1028","Xanomeline High Dose",81,"Xanomeline High Dose",81,"2013-07-19","2014-01-14",71,"65-80",2,"WHITE",1,"M","Y","","Y","         Week 20",20,139,"2013-12-04","WEEK 20",11,"Hemoglobin (mmol/L)","HGB",1,"HEM",9.24694,10.42608,-1.17914,7.76,10.55,1.19161597938,0.876487203791,1.34356701031,0.988254028436,"",6.57806,"N","N","","",247,"NORMAL",9.24694],["CDISCPILOT01","1028","01-701-1028","Xanomeline High Dose",81,"Xanomeline High Dose",81,"2013-07-19","2014-01-14",71,"65-80",2,"WHITE",1,"M","Y","","Y","         Week 20",20,139,"2013-12-04","WEEK 20",11,"Hematocrit","HCT",2,"HEM",0.43,0.47,-0.04,0.37,0.51,1.16216216216,0.843137254902,1.27027027027,0.921568627451,"",0.335,"N","N","","",246,"NORMAL",0.43],["CDISCPILOT01","1028","01-701-1028","Xanomeline High Dose",81,"Xanomeline High Dose",81,"2013-07-19","2014-01-14",71,"65-80",2,"WHITE",1,"M","Y","","Y","         Week 20",20,139,"2013-12-04","WEEK 20",11,"Ery. Mean Corpuscular Volume (fL)","MCV",3,"HEM",100,104,-4,80,100,1.25,1,1.3,1.04,"",60,"N","N","","",252,"NORMAL",100],["CDISCPILOT01","1028","01-701-1028","Xanomeline High Dose",81,"Xanomeline High Dose",81,"2013-07-19","2014-01-14",71,"65-80",2,"WHITE",1,"M","Y","","Y","         Week 20",20,139,"2013-12-04","WEEK 20",11,"Ery. Mean Corpuscular Hemoglobin (fmol(Fe))","MCH",4,"HEM",2.1721,2.29622,-0.12412,1.6,2.1,1.3575625,1.03433333333,1.4351375,1.09343809524,"",1.3721,"N","N","","",250,"HIGH",2.1721],["CDISCPILOT01","1028","01-701-1028","Xanomeline High Dose",81,"Xanomeline High Dose",81,"2013-07-19","2014-01-14",71,"65-80",2,"WHITE",1,"M","Y","","Y","         Week 20",20,139,"2013-12-04","WEEK 20",11,"Ery. Mean Corpuscular HGB Concentration (mmol/L)","MCHC",5,"HEM",21.721,22.3416,-0.6206,19,24,1.14321052632,0.905041666667,1.17587368421,0.9309,"",14.279,"N","N","","",251,"NORMAL",21.721],["CDISCPILOT01","1028","01-701-1028","Xanomeline High Dose",81,"Xanomeline High Dose",81,"2013-07-19","2014-01-14",71,"65-80",2,"WHITE",1,"M","Y","","Y","         Week 20",20,139,"2013-12-04","WEEK 20",11,"Leukocytes (GI/L)","WBC",6,"HEM",5.45,5.05,0.4,3.8,10.7,1.43421052632,0.509345794393,1.32894736842,0.471962616822,"",10.6,"N","N","","",260,"NORMAL",5.45],["CDISCPILOT01","1028","01-701-1028","Xanomeline High Dose",81,"Xanomeline High Dose",81,"2013-07-19","2014-01-14",71,"65-80",2,"WHITE",1,"M","Y","","Y","         Week 20",20,139,"2013-12-04","WEEK 20",11,"Lymphocytes (GI/L)","LYM",7,"HEM",2.3,1.97,0.33,0.8,3,2.875,0.766666666667,2.4625,0.656666666667,"",2.2,"N","N","","",249,"NORMAL",2.3],["CDISCPILOT01","1028","01-701-1028","Xanomeline High Dose",81,"Xanomeline High Dose",81,"2013-07-19","2014-01-14",71,"65-80",2,"WHITE",1,"M","Y","","Y","         Week 20",20,139,"2013-12-04","WEEK 20",11,"Monocytes (GI/L)","MONO",8,"HEM",0.47,0.43,0.04,0.12,0.92,3.91666666667,0.510869565217,3.58333333333,0.467391304348,"",0.91,"N","N","","",253,"NORMAL",0.47],["CDISCPILOT01","1028","01-701-1028","Xanomeline High Dose",81,"Xanomeline High Dose",81,"2013-07-19","2014-01-14",71,"65-80",2,"WHITE",1,"M","Y","","Y","         Week 20",20,139,"2013-12-04","WEEK 20",11,"Eosinophils (GI/L)","EOS",9,"HEM",0.19,0.12,0.07,null,0.57,null,0.333333333333,null,0.210526315789,"",0.665,"N","N","","",243,"NORMAL",0.19],["CDISCPILOT01","1028","01-701-1028","Xanomeline High Dose",81,"Xanomeline High Dose",81,"2013-07-19","2014-01-14",71,"65-80",2,"WHITE",1,"M","Y","","Y","         Week 20",20,139,"2013-12-04","WEEK 20",11,"Basophils (GI/L)","BASO",10,"HEM",0.06,0.06,0,null,0.2,null,0.3,null,0.3,"",0.24,"N","N","","",235,"NORMAL",0.06],["CDISCPILOT01","1028","01-701-1028","Xanomeline High Dose",81,"Xanomeline High Dose",81,"2013-07-19","2014-01-14",71,"65-80",2,"WHITE",1,"M","Y","","Y","         Week 20",20,139,"2013-12-04","WEEK 20",11,"Platelet (GI/L)","PLAT",11,"HEM",160,168,-8,130,394,1.23076923077,0.406091370558,1.29230769231,0.426395939086,"",431,"N","N","","",256,"NORMAL",160],["CDISCPILOT01","1028","01-701-1028","Xanomeline High Dose",81,"Xanomeline High Dose",81,"2013-07-19","2014-01-14",71,"65-80",2,"WHITE",1,"M","Y","","Y","         Week 20",20,139,"2013-12-04","WEEK 20",11,"Erythrocytes (TI/L)","RBC",12,"HEM",4.3,4.5,-0.2,4,5.8,1.075,0.741379310345,1.125,0.775862068966,"",4.4,"N","N","","",258,"NORMAL",4.3],["CDISCPILOT01","1028","01-701-1028","Xanomeline High Dose",81,"Xanomeline High Dose",81,"2013-07-19","2014-01-14",71,"65-80",2,"WHITE",1,"M","Y","","Y","         Week 20",20,139,"2013-12-04","WEEK 20",11,"Anisocytes","ANISO",13,"HEM",1,null,null,null,null,null,null,null,null,"",null,"H","","","Y",233,"ABNORMAL",1],["CDISCPILOT01","1028","01-701-1028","Xanomeline High Dose",81,"Xanomeline High Dose",81,"2013-07-19","2014-01-14",71,"65-80",2,"WHITE",1,"M","Y","","Y","End of Treatment",99,139,"2013-12-04","WEEK 20",11,"Anisocytes","ANISO",13,"HEM",1,null,null,null,null,null,null,null,null,"",null,"H","","","Y",233,"ABNORMAL",1],["CDISCPILOT01","1028","01-701-1028","Xanomeline High Dose",81,"Xanomeline High Dose",81,"2013-07-19","2014-01-14",71,"65-80",2,"WHITE",1,"M","Y","","Y","         Week 20",20,139,"2013-12-04","WEEK 20",11,"Hemoglobin (mmol/L) change from previous visit, relative to normal range","_HGB",101,"HEM",0,null,null,null,null,null,null,null,null,"",6.57806,"N","","","",247,"NORMAL",9.24694],["CDISCPILOT01","1028","01-701-1028","Xanomeline High Dose",81,"Xanomeline High Dose",81,"2013-07-19","2014-01-14",71,"65-80",2,"WHITE",1,"M","Y","","Y","         Week 20",20,139,"2013-12-04","WEEK 20",11,"Hematocrit change from previous visit, relative to normal range","_HCT",102,"HEM",0,null,null,null,null,null,null,null,null,"",0.335,"N","","","",246,"NORMAL",0.43],["CDISCPILOT01","1028","01-701-1028","Xanomeline High Dose",81,"Xanomeline High Dose",81,"2013-07-19","2014-01-14",71,"65-80",2,"WHITE",1,"M","Y","","Y","         Week 20",20,139,"2013-12-04","WEEK 20",11,"Ery. Mean Corpuscular Volume (fL) change from previous visit, relative to normal range","_MCV",103,"HEM",-0.2,null,null,null,null,null,null,null,null,"",60,"N","","","",252,"NORMAL",100],["CDISCPILOT01","1028","01-701-1028","Xanomeline High Dose",81,"Xanomeline High Dose",81,"2013-07-19","2014-01-14",71,"65-80",2,"WHITE",1,"M","Y","","Y","         Week 20",20,139,"2013-12-04","WEEK 20",11,"Ery. Mean Corpuscular Hemoglobin (fmol(Fe)) change from previous visit, relative to normal range","_MCH",104,"HEM",0,null,null,null,null,null,null,null,null,"",1.3721,"N","","","",250,"HIGH",2.1721],["CDISCPILOT01","1028","01-701-1028","Xanomeline High Dose",81,"Xanomeline High Dose",81,"2013-07-19","2014-01-14",71,"65-80",2,"WHITE",1,"M","Y","","Y","         Week 20",20,139,"2013-12-04","WEEK 20",11,"Ery. Mean Corpuscular HGB Concentration (mmol/L) change from previous visit, relative to normal rang","_MCHC",105,"HEM",0,null,null,null,null,null,null,null,null,"",14.279,"N","","","",251,"NORMAL",21.721],["CDISCPILOT01","1028","01-701-1028","Xanomeline High Dose",81,"Xanomeline High Dose",81,"2013-07-19","2014-01-14",71,"65-80",2,"WHITE",1,"M","Y","","Y","         Week 20",20,139,"2013-12-04","WEEK 20",11,"Leukocytes (GI/L) change from previous visit, relative to normal range","_WBC",106,"HEM",0.2,null,null,null,null,null,null,null,null,"",10.6,"N","","","",260,"NORMAL",5.45],["CDISCPILOT01","1028","01-701-1028","Xanomeline High Dose",81,"Xanomeline High Dose",81,"2013-07-19","2014-01-14",71,"65-80",2,"WHITE",1,"M","Y","","Y","         Week 20",20,139,"2013-12-04","WEEK 20",11,"Lymphocytes (GI/L) change from previous visit, relative to normal range","_LYM",107,"HEM",0.8,null,null,null,null,null,null,null,null,"Y",2.2,"N","","","",249,"NORMAL",2.3],["CDISCPILOT01","1028","01-701-1028","Xanomeline High Dose",81,"Xanomeline High Dose",81,"2013-07-19","2014-01-14",71,"65-80",2,"WHITE",1,"M","Y","","Y","         Week 20",20,139,"2013-12-04","WEEK 20",11,"Monocytes (GI/L) change from previous visit, relative to normal range","_MONO",108,"HEM",0.1,null,null,null,null,null,null,null,null,"",0.91,"N","","","",253,"NORMAL",0.47],["CDISCPILOT01","1028","01-701-1028","Xanomeline High Dose",81,"Xanomeline High Dose",81,"2013-07-19","2014-01-14",71,"65-80",2,"WHITE",1,"M","Y","","Y","         Week 20",20,139,"2013-12-04","WEEK 20",11,"Eosinophils (GI/L) change from previous visit, relative to normal range","_EOS",109,"HEM",0,n