{"datasetJSONCreationDateTime":"2024-12-18T15:34:31","datasetJSONVersion":"1.1.0","fileOID":"CDISCPILOT01.adqsnpix","dbLastModifiedDateTime":"2012-10-15T22:56:21","originator":"CDISC Data Exchange Standards Team","sourceSystem":{"name":"SAS on X64_10PRO","version":"9.0401M7"},"studyOID":"CDISCPILOT01","metaDataVersionOID":"CDISC.ADaM.2.1","metaDataRef":"define.xml","itemGroupOID":"ADQSNPIX","records":31140,"name":"ADQSNPIX","label":"NPI-X Item Analysis Data","columns":[{"itemOID":"ADQSNPIX.STUDYID","name":"STUDYID","label":"Study Identifier","dataType":"string","length":12},{"itemOID":"ADQSNPIX.SITEID","name":"SITEID","label":"Study Site Identifier","dataType":"string","length":3},{"itemOID":"ADQSNPIX.SITEGR1","name":"SITEGR1","label":"Pooled Site Group 1","dataType":"string","length":3},{"itemOID":"ADQSNPIX.USUBJID","name":"USUBJID","label":"Unique Subject Identifier","dataType":"string","length":11,"keySequence":1},{"itemOID":"ADQSNPIX.TRTSDT","name":"TRTSDT","label":"Date of First Exposure to Treatment","dataType":"date","targetDataType":"integer","displayFormat":"DATE9."},{"itemOID":"ADQSNPIX.TRTEDT","name":"TRTEDT","label":"Date of Last Exposure to Treatment","dataType":"date","targetDataType":"integer","displayFormat":"DATE9."},{"itemOID":"ADQSNPIX.TRTP","name":"TRTP","label":"Planned Treatment","dataType":"string","length":20},{"itemOID":"ADQSNPIX.TRTPN","name":"TRTPN","label":"Planned Treatment (N)","dataType":"integer"},{"itemOID":"ADQSNPIX.AGE","name":"AGE","label":"Age","dataType":"integer"},{"itemOID":"ADQSNPIX.AGEGR1","name":"AGEGR1","label":"Pooled Age Group 1","dataType":"string","length":5},{"itemOID":"ADQSNPIX.AGEGR1N","name":"AGEGR1N","label":"Pooled Age Group 1 (N)","dataType":"integer"},{"itemOID":"ADQSNPIX.RACE","name":"RACE","label":"Race","dataType":"string","length":32},{"itemOID":"ADQSNPIX.RACEN","name":"RACEN","label":"Race (N)","dataType":"integer"},{"itemOID":"ADQSNPIX.SEX","name":"SEX","label":"Sex","dataType":"string","length":1},{"itemOID":"ADQSNPIX.ITTFL","name":"ITTFL","label":"Intent-to-Treat Population Flag","dataType":"string","length":1},{"itemOID":"ADQSNPIX.EFFFL","name":"EFFFL","label":"Efficacy Population Flag","dataType":"string","length":1},{"itemOID":"ADQSNPIX.COMP24FL","name":"COMP24FL","label":"Completers of Week 24 Population Flag","dataType":"string","length":1},{"itemOID":"ADQSNPIX.AVISIT","name":"AVISIT","label":"Analysis Visit","dataType":"string","length":16,"keySequence":3},{"itemOID":"ADQSNPIX.AVISITN","name":"AVISITN","label":"Analysis Visit (N)","dataType":"integer"},{"itemOID":"ADQSNPIX.ADY","name":"ADY","label":"Analysis Relative Day","dataType":"integer"},{"itemOID":"ADQSNPIX.ADT","name":"ADT","label":"Analysis Date","dataType":"date","targetDataType":"integer","displayFormat":"DATE9.","keySequence":4},{"itemOID":"ADQSNPIX.VISITNUM","name":"VISITNUM","label":"Visit Number","dataType":"decimal"},{"itemOID":"ADQSNPIX.VISIT","name":"VISIT","label":"Visit Name","dataType":"string","length":19},{"itemOID":"ADQSNPIX.PARAM","name":"PARAM","label":"Parameter","dataType":"string","length":100},{"itemOID":"ADQSNPIX.PARAMCD","name":"PARAMCD","label":"Parameter Code","dataType":"string","length":8,"keySequence":2},{"itemOID":"ADQSNPIX.PARAMN","name":"PARAMN","label":"Parameter (N)","dataType":"integer"},{"itemOID":"ADQSNPIX.PARAMTYP","name":"PARAMTYP","label":"Parameter Type","dataType":"string","length":7},{"itemOID":"ADQSNPIX.AVAL","name":"AVAL","label":"Analysis Value","dataType":"integer"},{"itemOID":"ADQSNPIX.BASE","name":"BASE","label":"Baseline Value","dataType":"integer"},{"itemOID":"ADQSNPIX.CHG","name":"CHG","label":"Change from Baseline","dataType":"integer"},{"itemOID":"ADQSNPIX.PCHG","name":"PCHG","label":"Percent Change from Baseline","dataType":"integer"},{"itemOID":"ADQSNPIX.ABLFL","name":"ABLFL","label":"Analysis Baseline Flag","dataType":"string","length":1},{"itemOID":"ADQSNPIX.ANL01FL","name":"ANL01FL","label":"Analysis Record Flag 01","dataType":"string","length":1},{"itemOID":"ADQSNPIX.DTYPE","name":"DTYPE","label":"Derivation Type","dataType":"string","length":7},{"itemOID":"ADQSNPIX.AWRANGE","name":"AWRANGE","label":"Analysis Window Valid Relative Range","dataType":"string","length":9},{"itemOID":"ADQSNPIX.AWTARGET","name":"AWTARGET","label":"Analysis Window Target","dataType":"integer"},{"itemOID":"ADQSNPIX.AWTDIFF","name":"AWTDIFF","label":"Analysis Window Diff from Target","dataType":"integer"},{"itemOID":"ADQSNPIX.AWLO","name":"AWLO","label":"Analysis Window Beginning Timepoint","dataType":"integer"},{"itemOID":"ADQSNPIX.AWHI","name":"AWHI","label":"Analysis Window Ending Timepoint","dataType":"integer"},{"itemOID":"ADQSNPIX.AWU","name":"AWU","label":"Analysis Window Unit","dataType":"string","length":4},{"itemOID":"ADQSNPIX.QSSEQ","name":"QSSEQ","label":"Sequence Number","dataType":"integer"}],"rows":[["CDISCPILOT01","701","701","01-701-1015","2014-01-02","2014-07-02","Placebo",0,63,"<65",1,"WHITE",1,"F","Y","Y","Y","        Baseline",0,1,"2014-01-02",3,"BASELINE","NPI-X Item A (Delusion) Score","NPITM01S",1,"",0,0,0,null,"Y","Y","","<= 1",1,0,null,1,"DAYS",3002],["CDISCPILOT01","701","701","01-701-1015","2014-01-02","2014-07-02","Placebo",0,63,"<65",1,"WHITE",1,"F","Y","Y","Y","          Week 2",2,15,"2014-01-16",4,"WEEK 2","NPI-X Item A (Delusion) Score","NPITM01S",1,"",0,0,0,null,"","Y","","2 - 21",14,1,2,21,"DAYS",3027],["CDISCPILOT01","701","701","01-701-1015","2014-01-02","2014-07-02","Placebo",0,63,"<65",1,"WHITE",1,"F","Y","Y","Y","          Week 4",4,29,"2014-01-30",5,"WEEK 4","NPI-X Item A (Delusion) Score","NPITM01S",1,"",0,0,0,null,"","Y","","22 - 35",28,1,22,35,"DAYS",3052],["CDISCPILOT01","701","701","01-701-1015","2014-01-02","2014-07-02","Placebo",0,63,"<65",1,"WHITE",1,"F","Y","Y","Y","          Week 6",6,42,"2014-02-12",7,"WEEK 6","NPI-X Item A (Delusion) Score","NPITM01S",1,"",0,0,0,null,"","Y","","36 - 49",42,0,36,49,"DAYS",3077],["CDISCPILOT01","701","701","01-701-1015","2014-01-02","2014-07-02","Placebo",0,63,"<65",1,"WHITE",1,"F","Y","Y","Y","          Week 8",8,63,"2014-03-05",8,"WEEK 8","NPI-X Item A (Delusion) Score","NPITM01S",1,"",0,0,0,null,"","Y","","50 - 63",56,7,50,63,"DAYS",3102],["CDISCPILOT01","701","701","01-701-1015","2014-01-02","2014-07-02","Placebo",0,63,"<65",1,"WHITE",1,"F","Y","Y","Y","         Week 12",12,84,"2014-03-26",9,"WEEK 12","NPI-X Item A (Delusion) Score","NPITM01S",1,"",0,0,0,null,"","Y","","78 - 91",84,0,78,91,"DAYS",3127],["CDISCPILOT01","701","701","01-701-1015","2014-01-02","2014-07-02","Placebo",0,63,"<65",1,"WHITE",1,"F","Y","Y","Y","         Week 14",14,98,"2014-04-09",9.1,"WEEK 14 (T)","NPI-X Item A (Delusion) Score","NPITM01S",1,"",0,0,0,null,"","Y","","92 - 105",98,0,92,105,"DAYS",3152],["CDISCPILOT01","701","701","01-701-1015","2014-01-02","2014-07-02","Placebo",0,63,"<65",1,"WHITE",1,"F","Y","Y","Y","         Week 18",18,126,"2014-05-07",10,"WEEK 16","NPI-X Item A (Delusion) Score","NPITM01S",1,"",0,0,0,null,"","Y","","120 - 133",126,0,120,133,"DAYS",3177],["CDISCPILOT01","701","701","01-701-1015","2014-01-02","2014-07-02","Placebo",0,63,"<65",1,"WHITE",1,"F","Y","Y","Y","         Week 20",20,140,"2014-05-21",11,"WEEK 20","NPI-X Item A (Delusion) Score","NPITM01S",1,"",0,0,0,null,"","Y","","134 - 147",140,0,134,147,"DAYS",3202],["CDISCPILOT01","701","701","01-701-1015","2014-01-02","2014-07-02","Placebo",0,63,"<65",1,"WHITE",1,"F","Y","Y","Y","         Week 22",22,154,"2014-06-04",11.1,"WEEK 22 (T)","NPI-X Item A (Delusion) Score","NPITM01S",1,"",0,0,0,null,"","Y","","148 - 161",154,0,148,161,"DAYS",3227],["CDISCPILOT01","701","701","01-701-1015","2014-01-02","2014-07-02","Placebo",0,63,"<65",1,"WHITE",1,"F","Y","Y","Y","         Week 24",24,168,"2014-06-18",12,"WEEK 24","NPI-X Item A (Delusion) Score","NPITM01S",1,"",0,0,0,null,"","Y","","162 - 175",168,0,162,175,"DAYS",3252],["CDISCPILOT01","701","701","01-701-1015","2014-01-02","2014-07-02","Placebo",0,63,"<65",1,"WHITE",1,"F","Y","Y","Y","         Week 26",26,182,"2014-07-02",13,"WEEK 26","NPI-X Item A (Delusion) Score","NPITM01S",1,"",0,0,0,null,"","Y","",">175",182,0,176,null,"DAYS",3277],["CDISCPILOT01","701","701","01-701-1015","2014-01-02","2014-07-02","Placebo",0,63,"<65",1,"WHITE",1,"F","Y","Y","Y","        Baseline",0,1,"2014-01-02",3,"BASELINE","NPI-X Item B (Hallucination)  Score","NPITM02S",2,"",0,0,0,null,"Y","Y","","<= 1",1,0,null,1,"DAYS",3004],["CDISCPILOT01","701","701","01-701-1015","2014-01-02","2014-07-02","Placebo",0,63,"<65",1,"WHITE",1,"F","Y","Y","Y","          Week 2",2,15,"2014-01-16",4,"WEEK 2","NPI-X Item B (Hallucination)  Score","NPITM02S",2,"",0,0,0,null,"","Y","","2 - 21",14,1,2,21,"DAYS",3029],["CDISCPILOT01","701","701","01-701-1015","2014-01-02","2014-07-02","Placebo",0,63,"<65",1,"WHITE",1,"F","Y","Y","Y","          Week 4",4,29,"2014-01-30",5,"WEEK 4","NPI-X Item B (Hallucination)  Score","NPITM02S",2,"",0,0,0,null,"","Y","","22 - 35",28,1,22,35,"DAYS",3054],["CDISCPILOT01","701","701","01-701-1015","2014-01-02","2014-07-02","Placebo",0,63,"<65",1,"WHITE",1,"F","Y","Y","Y","          Week 6",6,42,"2014-02-12",7,"WEEK 6","NPI-X Item B (Hallucination)  Score","NPITM02S",2,"",0,0,0,null,"","Y","","36 - 49",42,0,36,49,"DAYS",3079],["CDISCPILOT01","701","701","01-701-1015","2014-01-02","2014-07-02","Placebo",0,63,"<65",1,"WHITE",1,"F","Y","Y","Y","          Week 8",8,63,"2014-03-05",8,"WEEK 8","NPI-X Item B (Hallucination)  Score","NPITM02S",2,"",0,0,0,null,"","Y","","50 - 63",56,7,50,63,"DAYS",3104],["CDISCPILOT01","701","701","01-701-1015","2014-01-02","2014-07-02","Placebo",0,63,"<65",1,"WHITE",1,"F","Y","Y","Y","         Week 12",12,84,"2014-03-26",9,"WEEK 12","NPI-X Item B (Hallucination)  Score","NPITM02S",2,"",0,0,0,null,"","Y","","78 - 91",84,0,78,91,"DAYS",3129],["CDISCPILOT01","701","701","01-701-1015","2014-01-02","2014-07-02","Placebo",0,63,"<65",1,"WHITE",1,"F","Y","Y","Y","         Week 14",14,98,"2014-04-09",9.1,"WEEK 14 (T)","NPI-X Item B (Hallucination)  Score","NPITM02S",2,"",0,0,0,null,"","Y","","92 - 105",98,0,92,105,"DAYS",3154],["CDISCPILOT01","701","701","01-701-1015","2014-01-02","2014-07-02","Placebo",0,63,"<65",1,"WHITE",1,"F","Y","Y","Y","         Week 18",18,126,"2014-05-07",10,"WEEK 16","NPI-X Item B (Hallucination)  Score","NPITM02S",2,"",0,0,0,null,"","Y","","120 - 133",126,0,120,133,"DAYS",3179],["CDISCPILOT01","701","701","01-701-1015","2014-01-02","2014-07-02","Placebo",0,63,"<65",1,"WHITE",1,"F","Y","Y","Y","         Week 20",20,140,"2014-05-21",11,"WEEK 20","NPI-X Item B (Hallucination)  Score","NPITM02S",2,"",0,0,0,null,"","Y","","134 - 147",140,0,134,147,"DAYS",3204],["CDISCPILOT01","701","701","01-701-1015","2014-01-02","2014-07-02","Placebo",0,63,"<65",1,"WHITE",1,"F","Y","Y","Y","         Week 22",22,154,"2014-06-04",11.1,"WEEK 22 (T)","NPI-X Item B (Hallucination)  Score","NPITM02S",2,"",0,0,0,null,"","Y","","148 - 161",154,0,148,161,"DAYS",3229],["CDISCPILOT01","701","701","01-701-1015","2014-01-02","2014-07-02","Placebo",0,63,"<65",1,"WHITE",1,"F","Y","Y","Y","         Week 24",24,168,"2014-06-18",12,"WEEK 24","NPI-X Item B (Hallucination)  Score","NPITM02S",2,"",0,0,0,null,"","Y","","162 - 175",168,0,162,175,"DAYS",3254],["CDISCPILOT01","701","701","01-701-1015","2014-01-02","2014-07-02","Placebo",0,63,"<65",1,"WHITE",1,"F","Y","Y","Y","         Week 26",26,182,"2014-07-02",13,"WEEK 26","NPI-X Item B (Hallucination)  Score","NPITM02S",2,"",0,0,0,null,"","Y","",">175",182,0,176,null,"DAYS",3279],["CDISCPILOT01","701","701","01-701-1015","2014-01-02","2014-07-02","Placebo",0,63,"<65",1,"WHITE",1,"F","Y","Y","Y","        Baseline",0,1,"2014-01-02",3,"BASELINE","NPI-X Item C (Agitation/Agression) Score","NPITM03S",3,"",0,0,0,null,"Y","Y","","<= 1",1,0,null,1,"DAYS",3006],["CDISCPILOT01","701","701","01-701-1015","2014-01-02","2014-07-02","Placebo",0,63,"<65",1,"WHITE",1,"F","Y","Y","Y","          Week 2",2,15,"2014-01-16",4,"WEEK 2","NPI-X Item C (Agitation/Agression) Score","NPITM03S",3,"",0,0,0,null,"","Y","","2 - 21",14,1,2,21,"DAYS",3031],["CDISCPILOT01","701","701","01-701-1015","2014-01-02","2014-07-02","Placebo",0,63,"<65",1,"WHITE",1,"F","Y","Y","Y","          Week 4",4,29,"2014-01-30",5,"WEEK 4","NPI-X Item C (Agitation/Agression) Score","NPITM03S",3,"",0,0,0,null,"","Y","","22 - 35",28,1,22,35,"DAYS",3056],["CDISCPILOT01","701","701","01-701-1015","2014-01-02","2014-07-02","Placebo",0,63,"<65",1,"WHITE",1,"F","Y","Y","Y","          Week 6",6,42,"2014-02-12",7,"WEEK 6","NPI-X Item C (Agitation/Agression) Score","NPITM03S",3,"",0,0,0,null,"","Y","","36 - 49",42,0,36,49,"DAYS",3081],["CDISCPILOT01","701","701","01-701-1015","2014-01-02","2014-07-02","Placebo",0,63,"<65",1,"WHITE",1,"F","Y","Y","Y","          Week 8",8,63,"2014-03-05",8,"WEEK 8","NPI-X Item C (Agitation/Agression) Score","NPITM03S",3,"",0,0,0,null,"","Y","","50 - 63",56,7,50,63,"DAYS",3106],["CDISCPILOT01","701","701","01-701-1015","2014-01-02","2014-07-02","Placebo",0,63,"<65",1,"WHITE",1,"F","Y","Y","Y","         Week 12",12,84,"2014-03-26",9,"WEEK 12","NPI-X Item C (Agitation/Agression) Score","NPITM03S",3,"",0,0,0,null,"","Y","","78 - 91",84,0,78,91,"DAYS",3131],["CDISCPILOT01","701","701","01-701-1015","2014-01-02","2014-07-02","Placebo",0,63,"<65",1,"WHITE",1,"F","Y","Y","Y","         Week 14",14,98,"2014-04-09",9.1,"WEEK 14 (T)","NPI-X Item C (Agitation/Agression) Score","NPITM03S",3,"",0,0,0,null,"","Y","","92 - 105",98,0,92,105,"DAYS",3156],["CDISCPILOT01","701","701","01-701-1015","2014-01-02","2014-07-02","Placebo",0,63,"<65",1,"WHITE",1,"F","Y","Y","Y","         Week 18",18,126,"2014-05-07",10,"WEEK 16","NPI-X Item C (Agitation/Agression) Score","NPITM03S",3,"",0,0,0,null,"","Y","","120 - 133",126,0,120,133,"DAYS",3181],["CDISCPILOT01","701","701","01-701-1015","2014-01-02","2014-07-02","Placebo",0,63,"<65",1,"WHITE",1,"F","Y","Y","Y","         Week 20",20,140,"2014-05-21",11,"WEEK 20","NPI-X Item C (Agitation/Agression) Score","NPITM03S",3,"",0,0,0,null,"","Y","","134 - 147",140,0,134,147,"DAYS",3206],["CDISCPILOT01","701","701","01-701-1015","2014-01-02","2014-07-02","Placebo",0,63,"<65",1,"WHITE",1,"F","Y","Y","Y","         Week 22",22,154,"2014-06-04",11.1,"WEEK 22 (T)","NPI-X Item C (Agitation/Agression) Score","NPITM03S",3,"",0,0,0,null,"","Y","","148 - 161",154,0,148,161,"DAYS",3231],["CDISCPILOT01","701","701","01-701-1015","2014-01-02","2014-07-02","Placebo",0,63,"<65",1,"WHITE",1,"F","Y","Y","Y","         Week 24",24,168,"2014-06-18",12,"WEEK 24","NPI-X Item C (Agitation/Agression) Score","NPITM03S",3,"",0,0,0,null,"","Y","","162 - 175",168,0,162,175,"DAYS",3256],["CDISCPILOT01","701","701","01-701-1015","2014-01-02","2014-07-02","Placebo",0,63,"<65",1,"WHITE",1,"F","Y","Y","Y","         Week 26",26,182,"2014-07-02",13,"WEEK 26","NPI-X Item C (Agitation/Agression) Score","NPITM03S",3,"",0,0,0,null,"","Y","",">175",182,0,176,null,"DAYS",3281],["CDISCPILOT01","701","701","01-701-1015","2014-01-02","2014-07-02","Placebo",0,63,"<65",1,"WHITE",1,"F","Y","Y","Y","        Baseline",0,1,"2014-01-02",3,"BASELINE","NPI-X Item D (Depression/Dysphoria) Score","NPITM04S",4,"",0,0,0,null,"Y","Y","","<= 1",1,0,null,1,"DAYS",3008],["CDISCPILOT01","701","701","01-701-1015","2014-01-02","2014-07-02","Placebo",0,63,"<65",1,"WHITE",1,"F","Y","Y","Y","          Week 2",2,15,"2014-01-16",4,"WEEK 2","NPI-X Item D (Depression/Dysphoria) Score","NPITM04S",4,"",0,0,0,null,"","Y","","2 - 21",14,1,2,21,"DAYS",3033],["CDISCPILOT01","701","701","01-701-1015","2014-01-02","2014-07-02","Placebo",0,63,"<65",1,"WHITE",1,"F","Y","Y","Y","          Week 4",4,29,"2014-01-30",5,"WEEK 4","NPI-X Item D (Depression/Dysphoria) Score","NPITM04S",4,"",0,0,0,null,"","Y","","22 - 35",28,1,22,35,"DAYS",3058],["CDISCPILOT01","701","701","01-701-1015","2014-01-02","2014-07-02","Placebo",0,63,"<65",1,"WHITE",1,"F","Y","Y","Y","          Week 6",6,42,"2014-02-12",7,"WEEK 6","NPI-X Item D (Depression/Dysphoria) Score","NPITM04S",4,"",0,0,0,null,"","Y","","36 - 49",42,0,36,49,"DAYS",3083],["CDISCPILOT01","701","701","01-701-1015","2014-01-02","2014-07-02","Placebo",0,63,"<65",1,"WHITE",1,"F","Y","Y","Y","          Week 8",8,63,"2014-03-05",8,"WEEK 8","NPI-X Item D (Depression/Dysphoria) Score","NPITM04S",4,"",0,0,0,null,"","Y","","50 - 63",56,7,50,63,"DAYS",3108],["CDISCPILOT01","701","701","01-701-1015","2014-01-02","2014-07-02","Placebo",0,63,"<65",1,"WHITE",1,"F","Y","Y","Y","         Week 12",12,84,"2014-03-26",9,"WEEK 12","NPI-X Item D (Depression/Dysphoria) Score","NPITM04S",4,"",0,0,0,null,"","Y","","78 - 91",84,0,78,91,"DAYS",3133],["CDISCPILOT01","701","701","01-701-1015","2014-01-02","2014-07-02","Placebo",0,63,"<65",1,"WHITE",1,"F","Y","Y","Y","         Week 14",14,98,"2014-04-09",9.1,"WEEK 14 (T)","NPI-X Item D (Depression/Dysphoria) Score","NPITM04S",4,"",0,0,0,null,"","Y","","92 - 105",98,0,92,105,"DAYS",3158],["CDISCPILOT01","701","701","01-701-1015","2014-01-02","2014-07-02","Placebo",0,63,"<65",1,"WHITE",1,"F","Y","Y","Y","         Week 18",18,126,"2014-05-07",10,"WEEK 16","NPI-X Item D (Depression/Dysphoria) Score","NPITM04S",4,"",0,0,0,null,"","Y","","120 - 133",126,0,120,133,"DAYS",3183],["CDISCPILOT01","701","701","01-701-1015","2014-01-02","2014-07-02","Placebo",0,63,"<65",1,"WHITE",1,"F","Y","Y","Y","         Week 20",20,140,"2014-05-21",11,"WEEK 20","NPI-X Item D (Depression/Dysphoria) Score","NPITM04S",4,"",0,0,0,null,"","Y","","134 - 147",140,0,134,147,"DAYS",3208],["CDISCPILOT01","701","701","01-701-1015","2014-01-02","2014-07-02","Placebo",0,63,"<65",1,"WHITE",1,"F","Y","Y","Y","         Week 22",22,154,"2014-06-04",11.1,"WEEK 22 (T)","NPI-X Item D (Depression/Dysphoria) Score","NPITM04S",4,"",0,0,0,null,"","Y","","148 - 161",154,0,148,161,"DAYS",3233],["CDISCPILOT01","701","701","01-701-1015","2014-01-02","2014-07-02","Placebo",0,63,"<65",1,"WHITE",1,"F","Y","Y","Y","         Week 24",24,168,"2014-06-18",12,"WEEK 24","NPI-X Item D (Depression/Dysphoria) Score","NPITM04S",4,"",0,0,0,null,"","Y","","162 - 175",168,0,162,175,"DAYS",3258],["CDISCPILOT01","701","701","01-701-1015","2014-01-02","2014-07-02","Placebo",0,63,"<65",1,"WHITE",1,"F","Y","Y","Y","         Week 26",26,182,"2014-07-02",13,"WEEK 26","NPI-X Item D (Depression/Dysphoria) Score","NPITM04S",4,"",0,0,0,null,"","Y","",">175",182,0,176,null,"DAYS",3283],["CDISCPILOT01","701","701","01-701-1015","2014-01-02","2014-07-02","Placebo",0,63,"<65",1,"WHITE",1,"F","Y","Y","Y","        Baseline",0,1,"2014-01-02",3,"BASELINE","NPI-X Item E (Anxiety) Score","NPITM05S",5,"",0,0,0,null,"Y","Y","","<= 1",1,0,null,1,"DAYS",3010],["CDISCPILOT01","701","701","01-701-1015","2014-01-02","2014-07-02","Placebo",0,63,"<65",1,"WHITE",1,"F","Y","Y","Y","          Week 2",2,15,"2014-01-16",4,"WEEK 2","NPI-X Item E (Anxiety) Score","NPITM05S",5,"",0,0,0,null,"","Y","","2 - 21",14,1,2,21,"DAYS",3035],["CDISCPILOT01","701","701","01-701-1015","2014-01-02","2014-07-02","Placebo",0,63,"<65",1,"WHITE",1,"F","Y","Y","Y","          Week 4",4,29,"2014-01-30",5,"WEEK 4","NPI-X Item E (Anxiety) Score","NPITM05S",5,"",0,0,0,null,"","Y","","22 - 35",28,1,22,35,"DAYS",3060],["CDISCPILOT01","701","701","01-701-1015","2014-01-02","2014-07-02","Placebo",0,63,"<65",1,"WHITE",1,"F","Y","Y","Y","          Week 6",6,42,"2014-02-12",7,"WEEK 6","NPI-X Item E (Anxiety) Score","NPITM05S",5,"",0,0,0,null,"","Y","","36 - 49",42,0,36,49,"DAYS",3085],["CDISCPILOT01","701","701","01-701-1015","2014-01-02","2014-07-02","Placebo",0,63,"<65",1,"WHITE",1,"F","Y","Y","Y","          Week 8",8,63,"2014-03-05",8,"WEEK 8","NPI-X Item E (Anxiety) Score","NPITM05S",5,"",0,0,0,null,"","Y","","50 - 63",56,7,50,63,"DAYS",3110],["CDISCPILOT01","701","701","01-701-1015","2014-01-02","2014-07-02","Placebo",0,63,"<65",1,"WHITE",1,"F","Y","Y","Y","         Week 12",12,84,"2014-03-26",9,"WEEK 12","NPI-X Item E (Anxiety) Score","NPITM05S",5,"",0,0,0,null,"","Y","","78 - 91",84,0,78,91,"DAYS",3135],["CDISCPILOT01","701","701","01-701-1015","2014-01-02","2014-07-02","Placebo",0,63,"<65",1,"WHITE",1,"F","Y","Y","Y","         Week 14",14,98,"2014-04-09",9.1,"WEEK 14 (T)","NPI-X Item E (Anxiety) Score","NPITM05S",5,"",0,0,0,null,"","Y","","92 - 105",98,0,92,105,"DAYS",3160],["CDISCPILOT01","701","701","01-701-1015","2014-01-02","2014-07-02","Placebo",0,63,"<65",1,"WHITE",1,"F","Y","Y","Y","         Week 18",18,126,"2014-05-07",10,"WEEK 16","NPI-X Item E (Anxiety) Score","NPITM05S",5,"",0,0,0,null,"","Y","","120 - 133",126,0,120,133,"DAYS",3185],["CDISCPILOT01","701","701","01-701-1015","2014-01-02","2014-07-02","Placebo",0,63,"<65",1,"WHITE",1,"F","Y","Y","Y","         Week 20",20,140,"2014-05-21",11,"WEEK 20","NPI-X Item E (Anxiety) Score","NPITM05S",5,"",0,0,0,null,"","Y","","134 - 147",140,0,134,147,"DAYS",3210],["CDISCPILOT01","701","701","01-701-1015","2014-01-02","2014-07-02","Placebo",0,63,"<65",1,"WHITE",1,"F","Y","Y","Y","         Week 22",22,154,"2014-06-04",11.1,"WEEK 22 (T)","NPI-X Item E (Anxiety) Score","NPITM05S",5,"",0,0,0,null,"","Y","","148 - 161",154,0,148,161,"DAYS",3235],["CDISCPILOT01","701","701","01-701-1015","2014-01-02","2014-07-02","Placebo",0,63,"<65",1,"WHITE",1,"F","Y","Y","Y","         Week 24",24,168,"2014-06-18",12,"WEEK 24","NPI-X Item E (Anxiety) Score","NPITM05S",5,"",0,0,0,null,"","Y","","162 - 175",168,0,162,175,"DAYS",3260],["CDISCPILOT01","701","701","01-701-1015","2014-01-02","2014-07-02","Placebo",0,63,"<65",1,"WHITE",1,"F","Y","Y","Y","         Week 26",26,182,"2014-07-02",13,"WEEK 26","NPI-X Item E (Anxiety) Score","NPITM05S",5,"",0,0,0,null,"","Y","",">175",182,0,176,null,"DAYS",3285],["CDISCPILOT01","701","701","01-701-1015","2014-01-02","2014-07-02","Placebo",0,63,"<65",1,"WHITE",1,"F","Y","Y","Y","        Baseline",0,1,"2014-01-02",3,"BASELINE","NPI-X Item F (Eupohoria/Elation) Score","NPITM06S",6,"",0,0,0,null,"Y","Y","","<= 1",1,0,null,1,"DAYS",3012],["CDISCPILOT01","701","701","01-701-1015","2014-01-02","2014-07-02","Placebo",0,63,"<65",1,"WHITE",1,"F","Y","Y","Y","          Week 2",2,15,"2014-01-16",4,"WEEK 2","NPI-X Item F (Eupohoria/Elation) Score","NPITM06S",6,"",0,0,0,null,"","Y","","2 - 21",14,1,2,21,"DAYS",3037],["CDISCPILOT01","701","701","01-701-1015","2014-01-02","2014-07-02","Placebo",0,63,"<65",1,"WHITE",1,"F","Y","Y","Y","          Week 4",4,29,"2014-01-30",5,"WEEK 4","NPI-X Item F (Eupohoria/Elation) Score","NPITM06S",6,"",0,0,0,null,"","Y","","22 - 35",28,1,22,35,"DAYS",3062],["CDISCPILOT01","701","701","01-701-1015","2014-01-02","2014-07-02","Placebo",0,63,"<65",1,"WHITE",1,"F","Y","Y","Y","          Week 6",6,42,"2014-02-12",7,"WEEK 6","NPI-X Item F (Eupohoria/Elation) Score","NPITM06S",6,"",0,0,0,null,"","Y","","36 - 49",42,0,36,49,"DAYS",3087],["CDISCPILOT01","701","701","01-701-1015","2014-01-02","2014-07-02","Placebo",0,63,"<65",1,"WHITE",1,"F","Y","Y","Y","          Week 8",8,63,"2014-03-05",8,"WEEK 8","NPI-X Item F (Eupohoria/Elation) Score","NPITM06S",6,"",0,0,0,null,"","Y","","50 - 63",56,7,50,63,"DAYS",3112],["CDISCPILOT01","701","701","01-701-1015","2014-01-02","2014-07-02","Placebo",0,63,"<65",1,"WHITE",1,"F","Y","Y","Y","         Week 12",12,84,"2014-03-26",9,"WEEK 12","NPI-X Item F (Eupohoria/Elation) Score","NPITM06S",6,"",0,0,0,null,"","Y","","78 - 91",84,0,78,91,"DAYS",3137],["CDISCPILOT01","701","701","01-701-1015","2014-01-02","2014-07-02","Placebo",0,63,"<65",1,"WHITE",1,"F","Y","Y","Y","         Week 14",14,98,"2014-04-09",9.1,"WEEK 14 (T)","NPI-X Item F (Eupohoria/Elation) Score","NPITM06S",6,"",0,0,0,null,"","Y","","92 - 105",98,0,92,105,"DAYS",3162],["CDISCPILOT01","701","701","01-701-1015","2014-01-02","2014-07-02","Placebo",0,63,"<65",1,"WHITE",1,"F","Y","Y","Y","         Week 18",18,126,"2014-05-07",10,"WEEK 16","NPI-X Item F (Eupohoria/Elation) Score","NPITM06S",6,"",0,0,0,null,"","Y","","120 - 133",126,0,120,133,"DAYS",3187],["CDISCPILOT01","701","701","01-701-1015","2014-01-02","2014-07-02","Placebo",0,63,"<65",1,"WHITE",1,"F","Y","Y","Y","         Week 20",20,140,"2014-05-21",11,"WEEK 20","NPI-X Item F (Eupohoria/Elation) Score","NPITM06S",6,"",0,0,0,null,"","Y","","134 - 147",140,0,134,147,"DAYS",3212],["CDISCPILOT01","701","701","01-701-1015","2014-01-02","2014-07-02","Placebo",0,63,"<65",1,"WHITE",1,"F","Y","Y","Y","         Week 22",22,154,"2014-06-04",11.1,"WEEK 22 (T)","NPI-X Item F (Eupohoria/Elation) Score","NPITM06S",6,"",0,0,0,null,"","Y","","148 - 161",154,0,148,161,"DAYS",3237],["CDISCPILOT01","701","701","01-701-1015","2014-01-02","2014-07-02","Placebo",0,63,"<65",1,"WHITE",1,"F","Y","Y","Y","         Week 24",24,168,"2014-06-18",12,"WEEK 24","NPI-X Item F (Eupohoria/Elation) Score","NPITM06S",6,"",0,0,0,null,"","Y","","162 - 175",168,0,162,175,"DAYS",3262],["CDISCPILOT01","701","701","01-701-1015","2014-01-02","2014-07-02","Placebo",0,63,"<65",1,"WHITE",1,"F","Y","Y","Y","         Week 26",26,182,"2014-07-02",13,"WEEK 26","NPI-X Item F (Eupohoria/Elation) Score","NPITM06S",6,"",0,0,0,null,"","Y","",">175",182,0,176,null,"DAYS",3287],["CDISCPILOT01","701","701","01-701-1015","2014-01-02","2014-07-02","Placebo",0,63,"<65",1,"WHITE",1,"F","Y","Y","Y","        Baseline",0,1,"2014-01-02",3,"BASELINE","NPI-X Item G (Apathy/Indifference) Score","NPITM07S",7,"",0,0,0,null,"Y","Y","","<= 1",1,0,null,1,"DAYS",3014],["CDISCPILOT01","701","701","01-701-1015","2014-01-02","2014-07-02","Placebo",0,63,"<65",1,"WHITE",1,"F","Y","Y","Y","          Week 2",2,15,"2014-01-16",4,"WEEK 2","NPI-X Item G (Apathy/Indifference) Score","NPITM07S",7,"",0,0,0,null,"","Y","","2 - 21",14,1,2,21,"DAYS",3039],["CDISCPILOT01","701","701","01-701-1015","2014-01-02","2014-07-02","Placebo",0,63,"<65",1,"WHITE",1,"F","Y","Y","Y","          Week 4",4,29,"2014-01-30",5,"WEEK 4","NPI-X Item G (Apathy/Indifference) Score","NPITM07S",7,"",0,0,0,null,"","Y","","22 - 35",28,1,22,35,"DAYS",3064],["CDISCPILOT01","701","701","01-701-1015","2014-01-02","2014-07-02","Placebo",0,63,"<65",1,"WHITE",1,"F","Y","Y","Y","          Week 6",6,42,"2014-02-12",7,"WEEK 6","NPI-X Item G (Apathy/Indifference) Score","NPITM07S",7,"",0,0,0,null,"","Y","","36 - 49",42,0,36,49,"DAYS",3089],["CDISCPILOT01","701","701","01-701-1015","2014-01-02","2014-07-02","Placebo",0,63,"<65",1,"WHITE",1,"F","Y","Y","Y","          Week 8",8,63,"2014-03-05",8,"WEEK 8","NPI-X Item G (Apathy/Indifference) Score","NPITM07S",7,"",0,0,0,null,"","Y","","50 - 63",56,7,50,63,"DAYS",3114],["CDISCPILOT01","701","701","01-701-1015","2014-01-02","2014-07-02","Placebo",0,63,"<65",1,"WHITE",1,"F","Y","Y","Y","         Week 12",12,84,"2014-03-26",9,"WEEK 12","NPI-X Item G (Apathy/Indifference) Score","NPITM07S",7,"",0,0,0,null,"","Y","","78 - 91",84,0,78,91,"DAYS",3139],["CDISCPILOT01","701","701","01-701-1015","2014-01-02","2014-07-02","Placebo",0,63,"<65",1,"WHITE",1,"F","Y","Y","Y","         Week 14",14,98,"2014-04-09",9.1,"WEEK 14 (T)","NPI-X Item G (Apathy/Indifference) Score","NPITM07S",7,"",0,0,0,null,"","Y","","92 - 105",98,0,92,105,"DAYS",3164],["CDISCPILOT01","701","701","01-701-1015","2014-01-02","2014-07-02","Placebo",0,63,"<65",1,"WHITE",1,"F","Y","Y","Y","         Week 18",18,126,"2014-05-07",10,"WEEK 16","NPI-X Item G (Apathy/Indifference) Score","NPITM07S",7,"",0,0,0,null,"","Y","","120 - 133",126,0,120,133,"DAYS",3189],["CDISCPILOT01","701","701","01-701-1015","2014-01-02","2014-07-02","Placebo",0,63,"<65",1,"WHITE",1,"F","Y","Y","Y","         Week 20",20,140,"2014-05-21",11,"WEEK 20","NPI-X Item G (Apathy/Indifference) Score","NPITM07S",7,"",0,0,0,null,"","Y","","134 - 147",140,0,134,147,"DAYS",3214],["CDISCPILOT01","701","701","01-701-1015","2014-01-02","2014-07-02","Placebo",0,63,"<65",1,"WHITE",1,"F","Y","Y","Y","         Week 22",22,154,"2014-06-04",11.1,"WEEK 22 (T)","NPI-X Item G (Apathy/Indifference) Score","NPITM07S",7,"",0,0,0,null,"","Y","","148 - 161",154,0,148,161,"DAYS",3239],["CDISCPILOT01","701","701","01-701-1015","2014-01-02","2014-07-02","Placebo",0,63,"<65",1,"WHITE",1,"F","Y","Y","Y","         Week 24",24,168,"2014-06-18",12,"WEEK 24","NPI-X Item G (Apathy/Indifference) Score","NPITM07S",7,"",0,0,0,null,"","Y","","162 - 175",168,0,162,175,"DAYS",3264],["CDISCPILOT01","701","701","01-701-1015","2014-01-02","2014-07-02","Placebo",0,63,"<65",1,"WHITE",1,"F","Y","Y","Y","         Week 26",26,182,"2014-07-02",13,"WEEK 26","NPI-X Item G (Apathy/Indifference) Score","NPITM07S",7,"",0,0,0,null,"","Y","",">175",182,0,176,null,"DAYS",3289],["CDISCPILOT01","701","701","01-701-1015","2014-01-02","2014-07-02","Placebo",0,63,"<65",1,"WHITE",1,"F","Y","Y","Y","        Baseline",0,1,"2014-01-02",3,"BASELINE","NPI-X Item H (Disinhibition) Score","NPITM08S",8,"",0,0,0,null,"Y","Y","","<= 1",1,0,null,1,"DAYS",3016],["CDISCPILOT01","701","701","01-701-1015","2014-01-02","2014-07-02","Placebo",0,63,"<65",1,"WHITE",1,"F","Y","Y","Y","          Week 2",2,15,"2014-01-16",4,"WEEK 2","NPI-X Item H (Disinhibition) Score","NPITM08S",8,"",0,0,0,null,"","Y","","2 - 21",14,1,2,21,"DAYS",3041],["CDISCPILOT01","701","701","01-701-1015","2014-01-02","2014-07-02","Placebo",0,63,"<65",1,"WHITE",1,"F","Y","Y","Y","          Week 4",4,29,"2014-01-30",5,"WEEK 4","NPI-X Item H (Disinhibition) Score","NPITM08S",8,"",0,0,0,null,"","Y","","22 - 35",28,1,22,35,"DAYS",3066],["CDISCPILOT01","701","701","01-701-1015","2014-01-02","2014-07-02","Placebo",0,63,"<65",1,"WHITE",1,"F","Y","Y","Y","          Week 6",6,42,"2014-02-12",7,"WEEK 6","NPI-X Item H (Disinhibition) Score","NPITM08S",8,"",0,0,0,null,"","Y","","36 - 49",42,0,36,49,"DAYS",3091],["CDISCPILOT01","701","701","01-701-1015","2014-01-02","2014-07-02","Placebo",0,63,"<65",1,"WHITE",1,"F","Y","Y","Y","          Week 8",8,63,"2014-03-05",8,"WEEK 8","NPI-X Item H (Disinhibition) Score","NPITM08S",8,"",0,0,0,null,"","Y","","50 - 63",56,7,50,63,"DAYS",3116],["CDISCPILOT01","701","701","01-701-1015","2014-01-02","2014-07-02","Placebo",0,63,"<65",1,"WHITE",1,"F","Y","Y","Y","         Week 12",12,84,"2014-03-26",9,"WEEK 12","NPI-X Item H (Disinhibition) Score","NPITM08S",8,"",0,0,0,null,"","Y","","78 - 91",84,0,78,91,"DAYS",3141],["CDISCPILOT01","701","701","01-701-1015","2014-01-02","2014-07-02","Placebo",0,63,"<65",1,"WHITE",1,"F","Y","Y","Y","         Week 14",14,98,"2014-04-09",9.1,"WEEK 14 (T)","NPI-X Item H (Disinhibition) Score","NPITM08S",8,"",0,0,0,null,"","Y","","92 - 105",98,0,92,105,"DAYS",3166],["CDISCPILOT01","701","701","01-701-1015","2014-01-02","2014-07-02","Placebo",0,63,"<65",1,"WHITE",1,"F","Y","Y","Y","         Week 18",18,126,"2014-05-07",10,"WEEK 16","NPI-X Item H (Disinhibition) Score","NPITM08S",8,"",0,0,0,null,"","Y","","120 - 133",126,0,120,133,"DAYS",3191],["CDISCPILOT01","701","701","01-701-1015","2014-01-02","2014-07-02","Placebo",0,63,"<65",1,"WHITE",1,"F","Y","Y","Y","         Week 20",20,140,"2014-05-21",11,"WEEK 20","NPI-X Item H (Disinhibition) Score","NPITM08S",8,"",0,0,0,null,"","Y","","134 - 147",140,0,134,147,"DAYS",3216],["CDISCPILOT01","701","701","01-701-1015","2014-01-02","2014-07-02","Placebo",0,63,"<65",1,"WHITE",1,"F","Y","Y","Y","         Week 22",22,154,"2014-06-04",11.1,"WEEK 22 (T)","NPI-X Item H (Disinhibition) Score","NPITM08S",8,"",0,0,0,null,"","Y","","148 - 161",154,0,148,161,"DAYS",3241],["CDISCPILOT01","701","701","01-701-1015","2014-01-02","2014-07-02","Placebo",0,63,"<65",1,"WHITE",1,"F","Y","Y","Y","         Week 24",24,168,"2014-06-18",12,"WEEK 24","NPI-X Item H (Disinhibition) Score","NPITM08S",8,"",0,0,0,null,"","Y","","162 - 175",168,0,162,175,"DAYS",3266],["CDISCPILOT01","701","701","01-701-1015","2014-01-02","2014-07-02","Placebo",0,63,"<65",1,"WHITE",1,"F","Y","Y","Y","         Week 26",26,182,"2014-07-02",13,"WEEK 26","NPI-X Item H (Disinhibition) Score","NPITM08S",8,"",0,0,0,null,"","Y","",">175",182,0,176,null,"DAYS",3291],["CDISCPILOT01","701","701","01-701-1015","2014-01-02","2014-07-02","Placebo",0,63,"<65",1,"WHITE",1,"F","Y","Y","Y","        Baseline",0,1,"2014-01-02",3,"BASELINE","NPI-X Item I (Irritability/Lability) Score","NPITM09S",9,"",0,0,0,null,"Y","Y","","<= 1",1,0,null,1,"DAYS",3018],["CDISCPILOT01","701","701","01-701-1015","2014-01-02","2014-07-02","Placebo",0,63,"<65",1,"WHITE",1,"F","Y","Y","Y","          Week 2",2,15,"2014-01-16",4,"WEEK 2","NPI-X Item I (Irritability/Lability) Score","NPITM09S",9,"",0,0,0,null,"","Y","","2 - 21",14,1,2,21,"DAYS",3043],["CDISCPILOT01","701","701","01-701-1015","2014-01-02","2014-07-02","Placebo",0,63,"<65",1,"WHITE",1,"F","Y","Y","Y","          Week 4",4,29,"2014-01-30",5,"WEEK 4","NPI-X Item I (Irritability/Lability) Score","NPITM09S",9,"",0,0,0,null,"","Y","","22 - 35",28,1,22,35,"DAYS",3068],["CDISCPILOT01","701","701","01-701-1015","2014-01-02","2014-07-02","Placebo",0,63,"<65",1,"WHITE",1,"F","Y","Y","Y","          Week 6",6,42,"2014-02-12",7,"WEEK 6","NPI-X Item I (Irritability/Lability) Score","NPITM09S",9,"",0,0,0,null,"","Y","","36 - 49",42,0,36,49,"DAYS",3093],["CDISCPILOT01","701","701","01-701-1015","2014-01-02","2014-07-02","Placebo",0,63,"<65",1,"WHITE",1,"F","Y","Y","Y","          Week 8",8,63,"2014-03-05",8,"WEEK 8","NPI-X Item I (Irritability/Lability) Score","NPITM09S",9,"",0,0,0,null,"","Y","","50 - 63",56,7,50,63,"DAYS",3118],["CDISCPILOT01","701","701","01-701-1015","2014-01-02","2014-07-02","Placebo",0,63,"<65",1,"WHITE",1,"F","Y","Y","Y","         Week 12",12,84,"2014-03-26",9,"WEEK 12","NPI-X Item I (Irritability/Lability) Score","NPITM09S",9,"",0,0,0,null,"","Y","","78 - 91",84,0,78,91,"DAYS",3143],["CDISCPILOT01","701","701","01-701-1015","2014-01-02","2014-07-02","Placebo",0,63,"<65",1,"WHITE",1,"F","Y","Y","Y","         Week 14",14,98,"2014-04-09",9.1,"WEEK 14 (T)","NPI-X Item I (Irritability/Lability) Score","NPITM09S",9,"",0,0,0,null,"","Y","","92 - 105",98,0,92,105,"DAYS",3168],["CDISCPILOT01","701","701","01-701-1015","2014-01-02","2014-07-02","Placebo",0,63,"<65",1,"WHITE",1,"F","Y","Y","Y","         Week 18",18,126,"2014-05-07",10,"WEEK 16","NPI-X Item I (Irritability/Lability) Score","NPITM09S",9,"",0,0,0,null,"","Y","","120 - 133",126,0,120,133,"DAYS",3193],["CDISCPILOT01","701","701","01-701-1015","2014-01-02","2014-07-02","Placebo",0,63,"<65",1,"WHITE",1,"F","Y","Y","Y","         Week 20",20,140,"2014-05-21",11,"WEEK 20","NPI-X Item I (Irritability/Lability) Score","NPITM09S",9,"",0,0,0,null,"","Y","","134 - 147",140,0,134,147,"DAYS",3218],["CDISCPILOT01","701","701","01-701-1015","2014-01-02","2014-07-02","Placebo",0,63,"<65",1,"WHITE",1,"F","Y","Y","Y","         Week 22",22,154,"2014-06-04",11.1,"WEEK 22 (T)","NPI-X Item I (Irritability/Lability) Score","NPITM09S",9,"",0,0,0,null,"","Y","","148 - 161",154,0,148,161,"DAYS",3243],["CDISCPILOT01","701","701","01-701-1015","2014-01-02","2014-07-02","Placebo",0,63,"<65",1,"WHITE",1,"F","Y","Y","Y","         Week 24",24,168,"2014-06-18",12,"WEEK 24","NPI-X Item I (Irritability/Lability) Score","NPITM09S",9,"",0,0,0,null,"","Y","","162 - 175",168,0,162,175,"DAYS",3268],["CDISCPILOT01","701","701","01-701-1015","2014-01-02","2014-07-02","Placebo",0,63,"<65",1,"WHITE",1,"F","Y","Y","Y","         Week 26",26,182,"2014-07-02",13,"WEEK 26","NPI-X Item I (Irritability/Lability) Score","NPITM09S",9,"",0,0,0,null,"","Y","",">175",182,0,176,null,"DAYS",3293],["CDISCPILOT01","701","701","01-701-1015","2014-01-02","2014-07-02","Placebo",0,63,"<65",1,"WHITE",1,"F","Y","Y","Y","        Baseline",0,1,"2014-01-02",3,"BASELINE","NPI-X Item J (Aberrant Motor Behavior) Score","NPITM10S",10,"",0,0,0,null,"Y","Y","","<= 1",1,0,null,1,"DAYS",3020],["CDISCPILOT01","701","701","01-701-1015","2014-01-02","2014-07-02","Placebo",0,63,"<65",1,"WHITE",1,"F","Y","Y","Y","          Week 2",2,15,"2014-01-16",4,"WEEK 2","NPI-X Item J (Aberrant Motor Behavior) Score","NPITM10S",10,"",0,0,0,null,"","Y","","2 - 21",14,1,2,21,"DAYS",3045],["CDISCPILOT01","701","701","01-701-1015","2014-01-02","2014-07-02","Placebo",0,63,"<65",1,"WHITE",1,"F","Y","Y","Y","          Week 4",4,29,"2014-01-30",5,"WEEK 4","NPI-X Item J (Aberrant Motor Behavior) Score","NPITM10S",10,"",0,0,0,null,"","Y","","22 - 35",28,1,22,35,"DAYS",3070],["CDISCPILOT01","701","701","01-701-1015","2014-01-02","2014-07-02","Placebo",0,63,"<65",1,"WHITE",1,"F","Y","Y","Y","          Week 6",6,42,"2014-02-12",7,"WEEK 6","NPI-X Item J (Aberrant Motor Behavior) Score","NPITM10S",10,"",0,0,0,null,"","Y","","36 - 49",42,0,36,49,"DAYS",3095],["CDISCPILOT01","701","701","01-701-1015","2014-01-02","2014-07-02","Placebo",0,63,"<65",1,"WHITE",1,"F","Y","Y","Y","          Week 8",8,63,"2014-03-05",8,"WEEK 8","NPI-X Item J (Aberrant Motor Behavior) Score","NPITM10S",10,"",0,0,0,null,"","Y","","50 - 63",56,7,50,63,"DAYS",3120],["CDISCPILOT01","701","701","01-701-1015","2014-01-02","2014-07-02","Placebo",0,63,"<65",1,"WHITE",1,"F","Y","Y","Y","         Week 12",12,84,"2014-03-26",9,"WEEK 12","NPI-X Item J (Aberrant Motor Behavior) Score","NPITM10S",10,"",0,0,0,null,"","Y","","78 - 91",84,0,78,91,"DAYS",3145],["CDISCPILOT01","701","701","01-701-1015","2014-01-02","2014-07-02","Placebo",0,63,"<65",1,"WHITE",1,"F","Y","Y","Y","         Week 14",14,98,"2014-04-09",9.1,"WEEK 14 (T)","NPI-X Item J (Aberrant Motor Behavior) Score","NPITM10S",10,"",0,0,0,null,"","Y","","92 - 105",98,0,92,105,"DAYS",3170],["CDISCPILOT01","701","701","01-701-1015","2014-01-02","2014-07-02","Placebo",0,63,"<65",1,"WHITE",1,"F","Y","Y","Y","         Week 18",18,126,"2014-05-07",10,"WEEK 16","NPI-X Item J (Aberrant Motor Behavior) Score","NPITM10S",10,"",0,0,0,null,"","Y","","120 - 133",126,0,120,133,"DAYS",3195],["CDISCPILOT01","701","701","01-701-1015","2014-01-02","2014-07-02","Placebo",0,63,"<65",1,"WHITE",1,"F","Y","Y","Y","         Week 20",20,140,"2014-05-21",11,"WEEK 20","NPI-X Item J (Aberrant Motor Behavior) Score","NPITM10S",10,"",0,0,0,null,"","Y","","134 - 147",140,0,134,147,"DAYS",3220],["CDISCPILOT01","701","701","01-701-1015","2014-01-02","2014-07-02","Placebo",0,63,"<65",1,"WHITE",1,"F","Y","Y","Y","         Week 22",22,154,"2014-06-04",11.1,"WEEK 22 (T)","NPI-X Item J (Aberrant Motor Behavior) Score","NPITM10S",10,"",0,0,0,null,"","Y","","148 - 161",154,0,148,161,"DAYS",3245],["CDISCPILOT01","701","701","01-701-1015","2014-01-02","2014-07-02","Placebo",0,63,"<65",1,"WHITE",1,"F","Y","Y","Y","         Week 24",24,168,"2014-06-18",12,"WEEK 24","NPI-X Item J (Aberrant Motor Behavior) Score","NPITM10S",10,"",0,0,0,null,"","Y","","162 - 175",168,0,162,175,"DAYS",3270],["CDISCPILOT01","701","701","01-701-1015","2014-01-02","2014-07-02","Placebo",0,63,"<65",1,"WHITE",1,"F","Y","Y","Y","         Week 26",26,182,"2014-07-02",13,"WEEK 26","NPI-X Item J (Aberrant Motor Behavior) Score","NPITM10S",10,"",0,0,0,null,"","Y","",">175",182,0,176,null,"DAYS",3295],["CDISCPILOT01","701","701","01-701-1015","2014-01-02","2014-07-02","Placebo",0,63,"<65",1,"WHITE",1,"F","Y","Y","Y","        Baseline",0,1,"2014-01-02",3,"BASELINE","NPI-X Item K (Night-time Behavior) Score","NPITM11S",11,"",0,0,0,null,"Y","Y","","<= 1",1,0,null,1,"DAYS",3022],["CDISCPILOT01","701","701","01-701-1015","2014-01-02","2014-07-02","Placebo",0,63,"<65",1,"WHITE",1,"F","Y","Y","Y","          Week 2",2,15,"2014-01-16",4,"WEEK 2","NPI-X Item K (Night-time Behavior) Score","NPITM11S",11,"",0,0,0,null,"","Y","","2 - 21",14,1,2,21,"DAYS",3047],["CDISCPILOT01","701","701","01-701-1015","2014-01-02","2014-07-02","Placebo",0,63,"<65",1,"WHITE",1,"F","Y","Y","Y","          Week 4",4,29,"2014-01-30",5,"WEEK 4","NPI-X Item K (Night-time Behavior) Score","NPITM11S",11,"",0,0,0,null,"","Y","","22 - 35",28,1,22,35,"DAYS",3072],["CDISCPILOT01","701","701","01-701-1015","2014-01-02","2014-07-02","Placebo",0,63,"<65",1,"WHITE",1,"F","Y","Y","Y","          Week 6",6,42,"2014-02-12",7,"WEEK 6","NPI-X Item K (Night-time Behavior) Score","NPITM11S",11,"",0,0,0,null,"","Y","","36 - 49",42,0,36,49,"DAYS",3097],["CDISCPILOT01","701","701","01-701-1015","2014-01-02","2014-07-02","Placebo",0,63,"<65",1,"WHITE",1,"F","Y","Y","Y","          Week 8",8,63,"2014-03-05",8,"WEEK 8","NPI-X Item K (Night-time Behavior) Score","NPITM11S",11,"",0,0,0,null,"","Y","","50 - 63",56,7,50,63,"DAYS",3122],["CDISCPILOT01","701","701","01-701-1015","2014-01-02","2014-07-02","Placebo",0,63,"<65",1,"WHITE",1,"F","Y","Y","Y","         Week 12",12,84,"2014-03-26",9,"WEEK 12","NPI-X Item K (Night-time Behavior) Score","NPITM11S",11,"",0,0,0,null,"","Y","","78 - 91",84,0,78,91,"DAYS",3147],["CDISCPILOT01","701","701","01-701-1015","2014-01-02","2014-07-02","Placebo",0,63,"<65",1,"WHITE",1,"F","Y","Y","Y","         Week 14",14,98,"2014-04-09",9.1,"WEEK 14 (T)","NPI-X Item K (Night-time Behavior) Score","NPITM11S",11,"",0,0,0,null,"","Y","","92 - 105",98,0,92,105,"DAYS",3172],["CDISCPILOT01","701","701","01-701-1015","2014-01-02","2014-07-02","Placebo",0,63,"<65",1,"WHITE",1,"F","Y","Y","Y","         Week 18",18,126,"2014-05-07",10,"WEEK 16","NPI-X Item K (Night-time Behavior) Score","NPITM11S",11,"",0,0,0,null,"","Y","","120 - 133",126,0,120,133,"DAYS",3197],["CDISCPILOT01","701","701","01-701-1015","2014-01-02","2014-07-02","Placebo",0,63,"<65",1,"WHITE",1,"F","Y","Y","Y","         Week 20",20,140,"2014-05-21",11,"WEEK 20","NPI-X Item K (Night-time Behavior) Score","NPITM11S",11,"",0,0,0,null,"","Y","","134 - 147",140,0,134,147,"DAYS",3222],["CDISCPILOT01","701","701","01-701-1015","2014-01-02","2014-07-02","Placebo",0,63,"<65",1,"WHITE",1,"F","Y","Y","Y","         Week 22",22,154,"2014-06-04",11.1,"WEEK 22 (T)","NPI-X Item K (Night-time Behavior) Score","NPITM11S",11,"",0,0,0,null,"","Y","","148 - 161",154,0,148,161,"DAYS",3247],["CDISCPILOT01","701","701","01-701-1015","2014-01-02","2014-07-02","Placebo",0,63,"<65",1,"WHITE",1,"F","Y","Y","Y","         Week 24",24,168,"2014-06-18",12,"WEEK 24","NPI-X Item K (Night-time Behavior) Score","NPITM11S",11,"",0,0,0,null,"","Y","","162 - 175",168,0,162,175,"DAYS",3272],["CDISCPILOT01","701","701","01-701-1015","2014-01-02","2014-07-02","Placebo",0,63,"<65",1,"WHITE",1,"F","Y","Y","Y","         Week 26",26,182,"2014-07-02",13,"WEEK 26","NPI-X Item K (Night-time Behavior) Score","NPITM11S",11,"",0,0,0,null,"","Y","",">175",182,0,176,null,"DAYS",3297],["CDISCPILOT01","701","701","01-701-1015","2014-01-02","2014-07-02","Placebo",0,63,"<65",1,"WHITE",1,"F","Y","Y","Y","        Baseline",0,1,"2014-01-02",3,"BASELINE","NPI-X Item L (Appetite/Eating Change) Score","NPITM12S",12,"",0,0,0,null,"Y","Y","","<= 1",1,0,null,1,"DAYS",3024],["CDISCPILOT01","701","701","01-701-1015","2014-01-02","2014-07-02","Placebo",0,63,"<65",1,"WHITE",1,"F","Y","Y","Y","          Week 2",2,15,"2014-01-16",4,"WEEK 2","NPI-X Item L (Appetite/Eating Change) Score","NPITM12S",12,"",0,0,0,null,"","Y","","2 - 21",14,1,2,21,"DAYS",3049],["CDISCPILOT01","701","701","01-701-1015","2014-01-02","2014-07-02","Placebo",0,63,"<65",1,"WHITE",1,"F","Y","Y","Y","          Week 4",4,29,"2014-01-30",5,"WEEK 4","NPI-X Item L (Appetite/Eating Change) Score","NPITM12S",12,"",0,0,0,null,"","Y","","22 - 35",28,1,22,35,"DAYS",3074],["CDISCPILOT01","701","701","01-701-1015","2014-01-02","2014-07-02","Placebo",0,63,"<65",1,"WHITE",1,"F","Y","Y","Y","          Week 6",6,42,"2014-02-12",7,"WEEK 6","NPI-X Item L (Appetite/Eating Change) Score","NPITM12S",12,"",0,0,0,null,"","Y","","36 - 49",42,0,36,49,"DAYS",3099],["CDISCPILOT01","701","701","01-701-1015","2014-01-02","2014-07-02","Placebo",0,63,"<65",1,"WHITE",1,"F","Y","Y","Y","          Week 8",8,63,"2014-03-05",8,"WEEK 8","NPI-X Item L (Appetite/Eating Change) Score","NPITM12S",12,"",0,0,0,null,"","Y","","50 - 63",56,7,50,63,"DAYS",3124],["CDISCPILOT01","701","701","01-701-1015","2014-01-02","2014-07-02","Placebo",0,63,"<65",1,"WHITE",1,"F","Y","Y","Y","         Week 12",12,84,"2014-03-26",9,"WEEK 12","NPI-X Item L (Appetite/Eating Change) Score","NPITM12S",12,"",0,0,0,null,"","Y","","78 - 91",84,0,78,91,"DAYS",3149],["CDISCPILOT01","701","701","01-701-1015","2014-01-02","2014-07-02","Placebo",0,63,"<65",1,"WHITE",1,"F","Y","Y","Y","         Week 14",14,98,"2014-04-09",9.1,"WEEK 14 (T)","NPI-X Item L (Appetite/Eating Change) Score","NPITM12S",12,"",0,0,0,null,"","Y","","92 - 105",98,0,92,105,"DAYS",3174],["CDISCPILOT01","701","701","01-701-1015","2014-01-02","2014-07-02","Placebo",0,63,"<65",1,"WHITE",1,"F","Y","Y","Y","         Week 18",18,126,"2014-05-07",10,"WEEK 16","NPI-X Item L (Appetite/Eating Change) Score","NPITM12S",12,"",0,0,0,null,"","Y","","120 - 133",126,0,120,133,"DAYS",3199],["CDISCPILOT01","701","701","01-701-1015","2014-01-02","2014-07-02","Placebo",0,63,"<65",1,"WHITE",1,"F","Y","Y","Y","         Week 20",20,140,"2014-05-21",11,"WEEK 20","NPI-X Item L (Appetite/Eating Change) Score","NPITM12S",12,"",0,0,0,null,"","Y","","134 - 147",140,0,134,147,"DAYS",3224],["CDISCPILOT01","701","701","01-701-1015","2014-01-02","2014-07-02","Placebo",0,63,"<65",1,"WHITE",1,"F","Y","Y","Y","         Week 22",22,154,"2014-06-04",11.1,"WEEK 22 (T)","NPI-X Item L (Appetite/Eating Change) Score","NPITM12S",12,"",0,0,0,null,"","Y","","148 - 161",154,0,148,161,"DAYS",3249],["CDISCPILOT01","701","701","01-701-1015","2014-01-02","2014-07-02","Placebo",0,63,"<65",1,"WHITE",1,"F","Y","Y","Y","         Week 24",24,168,"2014-06-18",12,"WEEK 24","NPI-X Item L (Appetite/Eating Change) Score","NPITM12S",12,"",0,0,0,null,"","Y","","162 - 175",168,0,162,175,"DAYS",3274],["CDISCPILOT01","701","701","01-701-1015","2014-01-02","2014-07-02","Placebo",0,63,"<65",1,"WHITE",1,"F","Y","Y","Y","         Week 26",26,182,"2014-07-02",13,"WEEK 26","NPI-X Item L (Appetite/Eating Change) Score","NPITM12S",12,"",0,0,0,null,"","Y","",">175",182,0,176,null,"DAYS",3299],["CDISCPILOT01","701","701","01-701-1015","2014-01-02","2014-07-02","Placebo",0,63,"<65",1,"WHITE",1,"F","Y","Y","Y","        Baseline",0,1,"2014-01-02",3,"BASELINE","NPI-X (9) Total Score","NPTOT",13,"",0,0,0,null,"Y","Y","","<= 1",1,0,null,1,"DAYS",3025],["CDISCPILOT01","701","701","01-701-1015","2014-01-02","2014-07-02","Placebo",0,63,"<65",1,"WHITE",1,"F","Y","Y","Y","          Week 2",2,15,"2014-01-16",4,"WEEK 2","NPI-X (9) Total Score","NPTOT",13,"",0,0,0,null,"","Y","","2 - 21",14,1,2,21,"DAYS",3050],["CDISCPILOT01","701","701","01-701-1015","2014-01-02","2014-07-02","Placebo",0,63,"<65",1,"WHITE",1,"F","Y","Y","Y","          Week 4",4,29,"2014-01-30",5,"WEEK 4","NPI-X (9) Total Score","NPTOT",13,"",0,0,0,null,"","Y","","22 - 35",28,1,22,35,"DAYS",3075],["CDISCPILOT01","701","701","01-701-1015","2014-01-02","2014-07-02","Placebo",0,63,"<65",1,"WHITE",1,"F","Y","Y","Y","          Week 6",6,42,"2014-02-12",7,"WEEK 6","NPI-X (9) Total Score","NPTOT",13,"",0,0,0,null,"","Y","","36 - 49",42,0,36,49,"DAYS",3100],["CDISCPILOT01","701","701","01-701-1015","2014-01-02","2014-07-02","Placebo",0,63,"<65",1,"WHITE",1,"F","Y","Y","Y","          Week 8",8,63,"2014-03-05",8,"WEEK 8","NPI-X (9) Total Score","NPTOT",13,"",0,0,0,null,"","Y","","50 - 63",56,7,50,63,"DAYS",3125],["CDISCPILOT01","701","701","01-701-1015","2014-01-02","2014-07-02","Placebo",0,63,"<65",1,"WHITE",1,"F","Y","Y","Y","         Week 12",12,84,"2014-03-26",9,"WEEK 12","NPI-X (9) Total Score","NPTOT",13,"",0,0,0,null,"","Y","","78 - 91",84,0,78,91,"DAYS",3150],["CDISCPILOT01","701","701","01-701-1015","2014-01-02","2014-07-02","Placebo",0,63,"<65",1,"WHITE",1,"F","Y","Y","Y","         Week 14",14,98,"2014-04-09",9.1,"WEEK 14 (T)","NPI-X (9) Total Score","NPTOT",13,"",0,0,0,null,"","Y","","92 - 105",98,0,92,105,"DAYS",3175],["CDISCPILOT01","701","701","01-701-1015","2014-01-02","2014-07-02","Placebo",0,63,"<65",1,"WHITE",1,"F","Y","Y","Y","         Week 18",18,126,"2014-05-07",10,"WEEK 16","NPI-X (9) Total Score","NPTOT",13,"",0,0,0,null,"","Y","","120 - 133",126,0,120,133,"DAYS",3200],["CDISCPILOT01","701","701","01-701-1015","2014-01-02","2014-07-02","Placebo",0,63,"<65",1,"WHITE",1,"F","Y","Y","Y","         Week 20",20,140,"2014-05-21",11,"WEEK 20","NPI-X (9) Total Score","NPTOT",13,"",0,0,0,null,"","Y","","134 - 147",140,0,134,147,"DAYS",3225],["CDISCPILOT01","701","701","01-701-1015","2014-01-02","2014-07-02","Placebo",0,63,"<65",1,"WHITE",1,"F","Y","Y","Y","         Week 22",22,154,"2014-06-04",11.1,"WEEK 22 (T)","NPI-X (9) Total Score","NPTOT",13,"",0,0,0,null,"","Y","","148 - 161",154,0,148,161,"DAYS",3250],["CDISCPILOT01","701","701","01-701-1015","2014-01-02","2014-07-02","Placebo",0,63,"<65",1,"WHITE",1,"F","Y","Y","Y","         Week 24",24,168,"2014-06-18",12,"WEEK 24","NPI-X (9) Total Score","NPTOT",13,"",0,0,0,null,"","Y","","162 - 175",168,0,162,175,"DAYS",3275],["CDISCPILOT01","701","701","01-701-1015","2014-01-02","2014-07-02","Placebo",0,63,"<65",1,"WHITE",1,"F","Y","Y","Y","         Week 26",26,182,"2014-07-02",13,"WEEK 26","NPI-X (9) Total Score","NPTOT",13,"",0,0,0,null,"","Y","",">175",182,0,176,null,"DAYS",3300],["CDISCPILOT01","701","701","01-701-1015","2014-01-02","2014-07-02","Placebo",0,63,"<65",1,"WHITE",1,"F","Y","Y","Y","        Baseline",0,1,"2014-01-02",3,"BASELINE","Mean NPI-X (9) Total (Week 4 to 24)","NPTOTMN",14,"DERIVED",0,0,0,null,"Y","Y","AVERAGE","<= 1",1,0,null,1,"DAYS",3025],["CDISCPILOT01","701","701","01-701-1015","2014-01-02","2014-07-02","Placebo",0,63,"<65",1,"WHITE",1,"F","Y","Y","Y","      Weeks 4-24",98,null,null,null,"","Mean NPI-X (9) Total (Week 4 to 24)","NPTOTMN",14,"DERIVED",0,0,null,null,"","Y","AVERAGE","22 - 175",98,0,22,175,"DAYS",null],["CDISCPILOT01","701","701","01-701-1023","2012-08-05","2012-09-01","Placebo",0,64,"<65",1,"WHITE",1,"M","Y","Y","N","        Baseline",0,1,"2012-08-05",3,"BASELINE","NPI-X Item A (Delusion) Score","NPITM01S",1,"",0,0,0,null,"Y","Y","","<= 1",1,0,null,1,"DAYS",3002],["CDISCPILOT01","701","701","01-701-1023","2012-08-05","2012-09-01","Placebo",0,64,"<65",1,"WHITE",1,"M","Y","Y","N","          Week 4",4,29,"2012-09-02",5,"WEEK 4","NPI-X Item A (Delusion) Score","NPITM01S",1,"",0,0,0,null,"","Y","","22 - 35",28,1,22,35,"DAYS",3068],["CDISCPILOT01","701","701","01-701-1023","2012-08-05","2012-09-01","Placebo",0,64,"<65",1,"WHITE",1,"M","Y","Y","N","          Week 4",4,23,"2012-08-27",4,"WEEK 2","NPI-X Item A (Delusion) Score","NPITM01S",1,"",3,0,3,null,"","","","22 - 35",28,5,22,35,"DAYS",3037],["CDISCPILOT01","701","701","01-701-1023","2012-08-05","2012-09-01","Placebo",0,64,"<65",1,"WHITE",1,"M","Y","Y","N","         Week 26",26,198,"2013-02-18",201,"RETRIEVAL","NPI-X Item A (Delusion) Score","NPITM01S",1,"",0,0,0,null,"","Y","",">175",182,16,176,null,"DAYS",3101],["CDISCPILOT01","701","701","01-701-1023","2012-08-05","2012-09-01","Placebo",0,64,"<65",1,"WHITE",1,"M","Y","Y","N","        Baseline",0,1,"2012-08-05",3,"BASELINE","NPI-X Item B (Hallucination)  Score","NPITM02S",2,"",0,0,0,null,"Y","Y","","<= 1",1,0,null,1,"DAYS",3004],["CDISCPILOT01","701","701","01-701-1023","2012-08-05","2012-09-01","Placebo",0,64,"<65",1,"WHITE",1,"M","Y","Y","N","          Week 4",4,29,"2012-09-02",5,"WEEK 4","NPI-X Item B (Hallucination)  Score","NPITM02S",2,"",0,0,0,null,"","Y","","22 - 35",28,1,22,35,"DAYS",3070],["CDISCPILOT01","701","701","01-701-1023","2012-08-05","2012-09-01","Placebo",0,64,"<65",1,"WHITE",1,"M","Y","Y","N","          Week 4",4,23,"2012-08-27",4,"WEEK 2","NPI-X Item B (Hallucination)  Score","NPITM02S",2,"",0,0,0,null,"","","","22 - 35",28,5,22,35,"DAYS",3039],["CDISCPILOT01","701","701","01-701-1023","2012-08-05","2012-09-01","Placebo",0,64,"<65",1,"WHITE",1,"M","Y","Y","N","         Week 26",26,198,"2013-02-18",201,"RETRIEVAL","NPI-X Item B (Hallucination)  Score","NPITM02S",2,"",0,0,0,null,"","Y","",">175",182,16,176,null,"DAYS",3103],["CDISCPILOT01","701","701","01-701-1023","2012-08-05","2012-09-01","Placebo",0,64,"<65",1,"WHITE",1,"M","Y","Y","N","        Baseline",0,1,"2012-08-05",3,"BASELINE","NPI-X Item C (Agitation/Agression) Score","NPITM03S",3,"",1,1,0,0,"Y","Y","","<= 1",1,0,null,1,"DAYS",3008],["CDISCPILOT01","701","701","01-701-1023","2012-08-05","2012-09-01","Placebo",0,64,"<65",1,"WHITE",1,"M","Y","Y","N","          Week 4",4,29,"2012-09-02",5,"WEEK 4","NPI-X Item C (Agitation/Agression) Score","NPITM03S",3,"",1,1,0,0,"","Y","","22 - 35",28,1,22,35,"DAYS",3074],["CDISCPILOT01","701","701","01-701-1023","2012-08-05","2012-09-01","Placebo",0,64,"<65",1,"WHITE",1,"M","Y","Y","N","          Week 4",4,23,"2012-08-27",4,"WEEK 2","NPI-X Item C (Agitation/Agression) Score","NPITM03S",3,"",0,1,-1,-100,"","","","22 - 35",28,5,22,35,"DAYS",3041],["CDISCPILOT01","701","701","01-701-1023","2012-08-05","2012-09-01","Placebo",0,64,"<65",1,"WHITE",1,"M","Y","Y","N","         Week 26",26,198,"2013-02-18",201,"RETRIEVAL","NPI-X Item C (Agitation/Agression) Score","NPITM03S",3,"",0,1,-1,-100,"","Y","",">175",182,16,176,null,"DAYS",3105],["CDISCPILOT01","701","701","01-701-1023","2012-08-05","2012-09-01","Placebo",0,64,"<65",1,"WHITE",1,"M","Y","Y","N","        Baseline",0,1,"2012-08-05",3,"BASELINE","NPI-X Item D (Depression/Dysphoria) Score","NPITM04S",4,"",4,4,0,0,"Y","Y","","<= 1",1,0,null,1,"DAYS",3012],["CDISCPILOT01","701","701","01-701-1023","2012-08-05","2012-09-01","Placebo",0,64,"<65",1,"WHITE",1,"M","Y","Y","N","          Week 4",4,29,"2012-09-02",5,"WEEK 4","NPI-X Item D (Depression/Dysphoria) Score","NPITM04S",4,"",4,4,0,0,"","Y","","22 - 35",28,1,22,35,"DAYS",3078],["CDISCPILOT01","701","701","01-701-1023","2012-08-05","2012-09-01","Placebo",0,64,"<65",1,"WHITE",1,"M","Y","Y","N","          Week 4",4,23,"2012-08-27",4,"WEEK 2","NPI-X Item D (Depression/Dysphoria) Score","NPITM04S",4,"",4,4,0,0,"","","","22 - 35",28,5,22,35,"DAYS",3045],["CDISCPILOT01","701","701","01-701-1023","2012-08-05","2012-09-01","Placebo",0,64,"<65",1,"WHITE",1,"M","Y","Y","N","         Week 26",26,198,"2013-02-18",201,"RETRIEVAL","NPI-X Item D (Depression/Dysphoria) Score","NPITM04S",4,"",1,4,-3,-75,"","Y","",">175",182,16,176,null,"DAYS",3109],["CDISCPILOT01","701","701","01-701-1023","2012-08-05","2012-09-01","Placebo",0,64,"<65",1,"WHITE",1,"M","Y","Y","N","        Baseline",0,1,"2012-08-05",3,"BASELINE","NPI-X Item E (Anxiety) Score","NPITM05S",5,"",4,4,0,0,"Y","Y","","<= 1",1,0,null,1,"DAYS",3016],["CDISCPILOT01","701","701","01-701-1023","2012-08-05","2012-09-01","Placebo",0,64,"<65",1,"WHITE",1,"M","Y","Y","N","          Week 4",4,29,"2012-09-02",5,"WEEK 4","NPI-X Item E (Anxiety) Score","NPITM05S",5,"",4,4,0,0,"","Y","","22 - 35",28,1,22,35,"DAYS",3082],["CDISCPILOT01","701","701","01-701-1023","2012-08-05","2012-09-01","Placebo",0,64,"<65",1,"WHITE",1,"M","Y","Y","N","          Week 4",4,23,"2012-08-27",4,"WEEK 2","NPI-X Item E (Anxiety) Score","NPITM05S",5,"",2,4,-2,-50,"","","","22 - 35",28,5,22,35,"DAYS",3049],["CDISCPILOT01","701","701","01-701-1023","2012-08-05","2012-09-01","Placebo",0,64,"<65",1,"WHITE",1,"M","Y","Y","N","         Week 26",26,198,"2013-02-18",201,"RETRIEVAL","NPI-X Item E (Anxiety) Score","NPITM05S",5,"",4,4,0,0,"","Y","",">175",182,16,176,null,"DAYS",3113],["CDISCPILOT01","701","701","01-701-1023","2012-08-05","2012-09-01","Placebo",0,64,"<65",1,"WHITE",1,"M","Y","Y","N","        Baseline",0,1,"2012-08-05",3,"BASELINE","NPI-X Item F (Eupohoria/Elation) Score","NPITM06S",6,"",0,0,0,null,"Y","Y","","<= 1",1,0,null,1,"DAYS",3018],["CDISCPILOT01","701","701","01-701-1023","2012-08-05","2012-09-01","Placebo",0,64,"<65",1,"WHITE",1,"M","Y","Y","N","          Week 4",4,29,"2012-09-02",5,"WEEK 4","NPI-X Item F (Eupohoria/Elation) Score","NPITM06S",6,"",0,0,0,null,"","Y","","22 - 35",28,1,22,35,"DAYS",3084],["CDISCPILOT01","701","701","01-701-1023","2012-08-05","2012-09-01","Placebo",0,64,"<65",1,"WHITE",1,"M","Y","Y","N","          Week 4",4,23,"2012-08-27",4,"WEEK 2","NPI-X Item F (Eupohoria/Elation) Score","NPITM06S",6,"",0,0,0,null,"","","","22 - 35",28,5,22,35,"DAYS",3051],["CDISCPILOT01","701","701","01-701-1023","2012-08-05","2012-09-01","Placebo",0,64,"<65",1,"WHITE",1,"M","Y","Y","N","         Week 26",26,198,"2013-02-18",201,"RETRIEVAL","NPI-X Item F (Eupohoria/Elation) Score","NPITM06S",6,"",0,0,0,null,"","Y","",">175",182,16,176,null,"DAYS",3115],["CDISCPILOT01","701","701","01-701-1023","2012-08-05","2012-09-01","Placebo",0,64,"<65",1,"WHITE",1,"M","Y","Y","N","        Baseline",0,1,"2012-08-05",3,"BASELINE","NPI-X Item G (Apathy/Indifference) Score","NPITM07S",7,"",0,0,0,null,"Y","Y","","<= 1",1,0,null,1,"DAYS",3020],["CDISCPILOT01","701","701","01-701-1023","2012-08-05","2012-09-01","Placebo",0,64,"<65",1,"WHITE",1,"M","Y","Y","N","          Week 4",4,29,"2012-09-02",5,"WEEK 4","NPI-X Item G (Apathy/Indifference) Score","NPITM07S",7,"",0,0,0,null,"","Y","","22 - 35",28,1,22,35,"DAYS",3086],["CDISCPILOT01","701","701","01-701-1023","2012-08-05","2012-09-01","Placebo",0,64,"<65",1,"WHITE",1,"M","Y","Y","N","          Week 4",4,23,"2012-08-27",4,"WEEK 2","NPI-X Item G (Apathy/Indifference) Score","NPITM07S",7,"",0,0,0,null,"","","","22 - 35",28,5,22,35,"DAYS",3053],["CDISCPILOT01","701","701","01-701-1023","2012-08-05","2012-09-01","Placebo",0,64,"<65",1,"WHITE",1,"M","Y","Y","N","         Week 26",26,198,"2013-02-18",201,"RETRIEVAL","NPI-X Item G (Apathy/Indifference) Score","NPITM07S",7,"",0,0,0,null,"","Y","",">175",182,16,176,null,"DAYS",3117],["CDISCPILOT01","701","701","01-701-1023","2012-08-05","2012-09-01","Placebo",0,64,"<65",1,"WHITE",1,"M","Y","Y","N","        Baseline",0,1,"2012-08-05",3,"BASELINE","NPI-X Item H (Disinhibition) Score","NPITM08S",8,"",0,0,0,null,"Y","Y","","<= 1",1,0,null,1,"DAYS",3022],["CDISCPILOT01","701","701","01-701-1023","2012-08-05","2012-09-01","Placebo",0,64,"<65",1,"WHITE",1,"M","Y","Y","N","          Week 4",4,29,"2012-09-02",5,"WEEK 4","NPI-X Item H (Disinhibition) Score","NPITM08S",8,"",0,0,0,null,"","Y","","22 - 35",28,1,22,35,"DAYS",3088],["CDISCPILOT01","701","701","01-701-1023","2012-08-05","2012-09-01","Placebo",0,64,"<65",1,"WHITE",1,"M","Y","Y","N","          Week 4",4,23,"2012-08-27",4,"WEEK 2","NPI-X Item H (Disinhibition) Score","NPITM08S",8,"",0,0,0,null,"","","","22 - 35",28,5,22,35,"DAYS",3055],["CDISCPILOT01","701","701","01-701-1023","2012-08-05","2012-09-01","Placebo",0,64,"<65",1,"WHITE",1,"M","Y","Y","N","         Week 26",26,198,"2013-02-18",201,"RETRIEVAL","NPI-X Item H (Disinhibition) Score","NPITM08S",8,"",0,0,0,null,"","Y","",">175",182,16,176,null,"DAYS",3119],["CDISCPILOT01","701","701","01-701-1023","2012-08-05","2012-09-01","Placebo",0,64,"<65",1,"WHITE",1,"M","Y","Y","N","        Baseline",0,1,"2012-08-05",3,"BASELINE","NPI-X Item I (Irritability/Lability) Score","NPITM09S",9,"",2,2,0,0,"Y","Y","","<= 1",1,0,null,1,"DAYS",3026],["CDISCPILOT01","701","701","01-701-1023","2012-08-05","2012-09-01","Placebo",0,64,"<65",1,"WHITE",1,"M","Y","Y","N","          Week 4",4,29,"2012-09-02",5,"WEEK 4","NPI-X Item I (Irritability/Lability) Score","NPITM09S",9,"",2,2,0,0,"","Y","","22 - 35",28,1,22,35,"DAYS",3092],["CDISCPILOT01","701","701","01-701-1023","2012-08-05","2012-09-01","Placebo",0,64,"<65",1,"WHITE",1,"M","Y","Y","N","          Week 4",4,23,"2012-08-27",4,"WEEK 2","NPI-X Item I (Irritability/Lability) Score","NPITM09S",9,"",1,2,-1,-50,"","","","22 - 35",28,5,22,35,"DAYS",3059],["CDISCPILOT01","701","701","01-701-1023","2012-08-05","2012-09-01","Placebo",0,64,"<65",1,"WHITE",1,"M","Y","Y","N","         Week 26",26,198,"2013-02-18",201,"RETRIEVAL","NPI-X Item I (Irritability/Lability) Score","NPITM09S",9,"",0,2,-2,-100,"","Y","",">175",182,16,176,null,"DAYS",3121],["CDISCPILOT01","701","701","01-701-1023","2012-08-05","2012-09-01","Placebo",0,64,"<65",1,"WHITE",1,"M","Y","Y","N","        Baseline",0,1,"2012-08-05",3,"BASELINE","NPI-X Item J (Aberrant Motor Behavior) Score","NPITM10S",10,"",0,0,0,null,"Y","Y","","<= 1",1,0,null,1,"DAYS",3028],["CDISCPILOT01","701","701","01-701-1023","2012-08-05","2012-09-01","Placebo",0,64,"<65",1,"WHITE",1,"M","Y","Y","N","          Week 4",4,29,"2012-09-02",5,"WEEK 4","NPI-X Item J (Aberrant Motor Behavior) Score","NPITM10S",10,"",0,0,0,null,"","Y","","22 - 35",28,1,22,35,"DAYS",3094],["CDISCPILOT01","701","701","01-701-1023","2012-08-05","2012-09-01","Placebo",0,64,"<65",1,"WHITE",1,"M","Y","Y","N","          Week 4",4,23,"2012-08-27",4,"WEEK 2","NPI-X Item J (Aberrant Motor Behavior) Score","NPITM10S",10,"",0,0,0,null,"","","","22 - 35",28,5,22,35,"DAYS",3061],["CDISCPILOT01","701","701","01-701-1023","2012-08-05","2012-09-01","Placebo",0,64,"<65",1,"WHITE",1,"M","Y","Y","N","         Week 26",26,198,"2013-02-18",201,"RETRIEVAL","NPI-X Item J (Aberrant Motor Behavior) Score","NPITM10S",10,"",0,0,0,null,"","Y","",">175",182,16,176,null,"DAYS",3123],["CDISCPILOT01","701","701","01-701-1023","2012-08-05","2012-09-01","Placebo",0,64,"<65",1,"WHITE",1,"M","Y","Y","N","        Baseline",0,1,"2012-08-05",3,"BASELINE","NPI-X Item K (Night-time Behavior) Score","NPITM11S",11,"",0,0,0,null,"Y","Y","","<= 1",1,0,null,1,"DAYS",3030],["CDISCPILOT01","701","701","01-701-1023","2012-08-05","2012-09-01","Placebo",0,64,"<65",1,"WHITE",1,"M","Y","Y","N","          Week 4",4,29,"2012-09-02",5,"WEEK 4","NPI-X Item K (Night-time Behavior) Score","NPITM11S",11,"",0,0,0,null,"","Y","","22 - 35",28,1,22,35,"DAYS",3096],["CDISCPILOT01","701","701","01-701-1023","2012-08-05","2012-09-01","Placebo",0,64,"<65",1,"WHITE",1,"M","Y","Y","N","          Week 4",4,23,"2012-08-27",4,"WEEK 2","NPI-X Item K (Night-time Behavior) Score","NPITM11S",11,"",0,0,0,null,"","","","22 - 35",28,5,22,35,"DAYS",3063],["CDISCPILOT01","701","701","01-701-1023","2012-08-05","2012-09-01","Placebo",0,64,"<65",1,"WHITE",1,"M","Y","Y","N","         Week 26",26,198,"2013-02-18",201,"RETRIEVAL","NPI-X Item K (Night-time Behavior) Score","NPITM11S",11,"",0,0,0,null,"","Y","",">175",182,16,176,null,"DAYS",3125],["CDISCPILOT01","701","701","01-701-1023","2012-08-05","2012-09-01","Placebo",0,64,"<65",1,"WHITE",1,"M","Y","Y","N","        Baseline",0,1,"2012-08-05",3,"BASELINE","NPI-X Item L (Appetite/Eating Change) Score","NPITM12S",12,"",0,0,0,null,"Y","Y","","<= 1",1,0,null,1,"DAYS",3032],["CDISCPILOT01","701","701","01-701-1023","2012-08-05","2012-09-01","Placebo",0,64,"<65",1,"WHITE",1,"M","Y","Y","N","          Week 4",4,29,"2012-09-02",5,"WEEK 4","NPI-X Item L (Appetite/Eating Change) Score","NPITM12S",12,"",0,0,0,null,"","Y","","22 - 35",28,1,22,35,"DAYS",3098],["CDISCPILOT01","701","701","01-701-1023","2012-08-05","2012-09-01","Placebo",0,64,"<65",1,"WHITE",1,"M","Y","Y","N","          Week 4",4,23,"2012-08-27",4,"WEEK 2","NPI-X Item L (Appetite/Eating Change) Score","NPITM12S",12,"",0,0,0,null,"","","","22 - 35",28,5,22,35,"DAYS",3065],["CDISCPILOT01","701","701","01-701-1023","2012-08-05","2012-09-01","Placebo",0,64,"<65",1,"WHITE",1,"M","Y","Y","N","         Week 26",26,198,"2013-02-18",201,"RETRIEVAL","NPI-X Item L (Appetite/Eating Change) Score","NPITM12S",12,"",0,0,0,null,"","Y","",">175",182,16,176,null,"DAYS",3127],["CDISCPILOT01","701","701","01-701-1023","2012-08-05","2012-09-01","Placebo",0,64,"<65",1,"WHITE",1,"M","Y","Y","N","        Baseline",0,1,"2012-08-05",3,"BASELINE","NPI-X (9) Total Score","NPTOT",13,"",11,11,0,0,"Y","Y","","<= 1",1,0,null,1,"DAYS",3033],["CDISCPILOT01","701","701","01-701-1023","2012-08-05","2012-09-01","Placebo",0,64,"<65",1,"WHITE",1,"M","Y","Y","N","          Week 4",4,29,"2012-09-02",5,"WEEK 4","NPI-X (9) Total Score","NPTOT",13,"",11,11,0,0,"","Y","","22 - 35",28,1,22,35,"DAYS",3099],["CDISCPILOT01","701","701","01-701-1023","2012-08-05","2012-09-01","Placebo",0,64,"<65",1,"WHITE",1,"M","Y","Y","N","          Week 4",4,23,"2012-08-27",4,"WEEK 2","NPI-X (9) Total Score","NPTOT",13,"",10,11,-1,-9.09090909091,"","","","22 - 35",28,5,22,35,"DAYS",3066],["CDISCPILOT01","701","701","01-701-1023","2012-08-05","2012-09-01","Placebo",0,64,"<65",1,"WHITE",1,"M","Y","Y","N","         Week 26",26,198,"2013-02-18",201,"RETRIEVAL","NPI-X (9) Total Score","NPTOT",13,"",5,11,-6,-54.5454545455,"","Y","",">175",182,16,176,null,"DAYS",3128],["CDISCPILOT01","701","701","01-701-1023","2012-08-05","2012-09-01","Placebo",0,64,"<65",1,"WHITE",1,"M","Y","Y","N","        Baseline",0,1,"2012-08-05",3,"BASELINE","Mean NPI-X (9) Total (Week 4 to 24)","NPTOTMN",14,"DERIVED",11,11,0,0,"Y","Y","AVERAGE","<= 1",1,0,null,1,"DAYS",3033],["CDISCPILOT01","701","701","01-701-1028","2013-07-19","2014-01-14","Xanomeline High Dose",81,71,"65-80",2,"WHITE",1,"M","Y","Y","Y","        Baseline",0,1,"2013-07-19",3,"BASELINE","NPI-X Item A (Delusion) Score","NPITM01S",1,"",0,0,0,null,"Y","Y","","<= 1",1,0,null,1,"DAYS",3002],["CDISCPILOT01","701","701","01-701-1028","2013-07-19","2014-01-14","Xanomeline High Dose",81,71,"65-80",2,"WHITE",1,"M","Y","Y","Y","          Week 2",2,14,"2013-08-01",4,"WEEK 2","NPI-X Item A (Delusion) Score","NPITM01S",1,"",0,0,0,null,"","Y","","2 - 21",14,0,2,21,"DAYS",3029],["CDISCPILOT01","701","701","01-701-1028","2013-07-19","2014-01-14","Xanomeline High Dose",81,71,"65-80",2,"WHITE",1,"M","Y","Y","Y","          Week 4",4,27,"2013-08-14",5,"WEEK 4","NPI-X Item A (Delusion) Score","NPITM01S",1,"",0,0,0,null,"","Y","","22 - 35",28,1,22,35,"DAYS",3056],["CDISCPILOT01","701","701","01-701-1028","2013-07-19","2014-01-14","Xanomeline High Dose",81,71,"65-80",2,"WHITE",1,"M","Y","Y","Y","          Week 6",6,42,"2013-08-29",7,"WEEK 6","NPI-X Item A (Delusion) Score","NPITM01S",1,"",0,0,0,null,"","Y","","36 - 49",42,0,36,49,"DAYS",3083],["CDISCPILOT01","701","701","01-701-1028","2013-07-19","2014-01-14","Xanomeline High Dose",81,71,"65-80",2,"WHITE",1,"M","Y","Y","Y","          Week 8",8,54,"2013-09-10",8,"WEEK 8","NPI-X Item A (Delusion) Score","NPITM01S",1,"",0,0,0,null,"","Y","","50 - 63",56,2,50,63,"DAYS",3110],["CDISCPILOT01","701","701","01-701-1028","2013-07-19","2014-01-14","Xanomeline High Dose",81,71,"65-80",2,"WHITE",1,"M","Y","Y","Y","         Week 10",10,68,"2013-09-24",8.1,"WEEK 10 (T)","NPI-X Item A (Delusion) Score","NPITM01S",1,"",0,0,0,null,"","Y","","64 - 77",70,2,64,77,"DAYS",3139],["CDISCPILOT01","701","701","01-701-1028","2013-07-19","2014-01-14","Xanomeline High Dose",81,71,"65-80",2,"WHITE",1,"M","Y","Y","Y","         Week 12",12,83,"2013-10-09",9,"WEEK 12","NPI-X Item A (Delusion) Score","NPITM01S",1,"",0,0,0,null,"","Y","","78 - 91",84,1,78,91,"DAYS",3166],["CDISCPILOT01","701","701","01-701-1028","2013-07-19","2014-01-14","Xanomeline High Dose",81,71,"65-80",2,"WHITE",1,"M","Y","Y","Y","         Week 14",14,97,"2013-10-23",9.1,"WEEK 14 (T)","NPI-X Item A (Delusion) Score","NPITM01S",1,"",0,0,0,null,"","Y","","92 - 105",98,1,92,105,"DAYS",3193],["CDISCPILOT01","701","701","01-701-1028","2013-07-19","2014-01-14","Xanomeline High Dose",81,71,"65-80",2,"WHITE",1,"M","Y","Y","Y","         Week 16",16,111,"2013-11-06",10,"WEEK 16","NPI-X Item A (Delusion) Score","NPITM01S",1,"",0,0,0,null,"","Y","","106 - 119",112,1,106,119,"DAYS",3220],["CDISCPILOT01","701","701","01-701-1028","2013-07-19","2014-01-14","Xanomeline High Dose",81,71,"65-80",2,"WHITE",1,"M","Y","Y","Y","         Week 18",18,125,"2013-11-20",10.1,"WEEK 18 (T)","NPI-X Item A (Delusion) Score","NPITM01S",1,"",0,0,0,null,"","Y","","120 - 133",126,1,120,133,"DAYS",3247],["CDISCPILOT01","701","701","01-701-1028","2013-07-19","2014-01-14","Xanomeline High Dose",81,71,"65-80",2,"WHITE",1,"M","Y","Y","Y","         Week 20",20,139,"2013-12-04",11,"WEEK 20","NPI-X Item A (Delusion) Score","NPITM01S",1,"",0,0,0,null,"","Y","","134 - 147",140,1,134,147,"DAYS",3274],["CDISCPILOT01","701","701","01-701-1028","2013-07-19","2014-01-14","Xanomeline High Dose",81,71,"65-80",2,"WHITE",1,"M","Y","Y","Y","         Week 22",22,153,"2013-12-18",11.1,"WEEK 22 (T)","NPI-X Item A (Delusion) Score","NPITM01S",1,"",0,0,0,null,"","Y","","148 - 161",154,1,148,161,"DAYS",3301],["CDISCPILOT01","701","701","01-701-1028","2013-07-19","2014-01-14","Xanomeline High Dose",81,71,"65-80",2,"WHITE",1,"M","Y","Y","Y","         Week 24",24,172,"2014-01-06",12,"WEEK 24","NPI-X Item A (Delusion) Score","NPITM01S",1,"",0,0,0,null,"","Y","","162 - 175",168,4,162,175,"DAYS",3328],["CDISCPILOT01","701","701","01-701-1028","2013-07-19","2014-01-14","Xanomeline High Dose",81,71,"65-80",2,"WHITE",1,"M","Y","Y","Y","         Week 26",26,180,"2014-01-14",13,"WEEK 26","NPI-X Item A (Delusion) Score","NPITM01S",1,"",0,0,0,null,"","Y","",">175",182,2,176,null,"DAYS",3355],["CDISCPILOT01","701","701","01-701-1028","2013-07-19","2014-01-14","Xanomeline High Dose",81,71,"65-80",2,"WHITE",1,"M","Y","Y","Y","        Baseline",0,1,"2013-07-19",3,"BASELINE","NPI-X Item B (Hallucination)  Score","NPITM02S",2,"",0,0,0,null,"Y","Y","","<= 1",1,0,null,1,"DAYS",3004],["CDISCPILOT01","701","701","01-701-1028","2013-07-19","2014-01-14","Xanomeline High Dose",81,71,"65-80",2,"WHITE",1,"M","Y","Y","Y","          Week 2",2,14,"2013-08-01",4,"WEEK 2","NPI-X Item B (Hallucination)  Score","NPITM02S",2,"",0,0,0,null,"","Y","","2 - 21",14,0,2,21,"DAYS",3031],["CDISCPILOT01","701","701","01-701-1028","2013-07-19","2014-01-14","Xanomeline High Dose",81,71,"65-80",2,"WHITE",1,"M","Y","Y","Y","          Week 4",4,27,"2013-08-14",5,"WEEK 4","NPI-X Item B (Hallucination)  Score","NPITM02S",2,"",0,0,0,null,"","Y","","22 - 35",28,1,22,35,"DAYS",3058],["CDISCPILOT01","701","701","01-701-1028","2013-07-19","2014-01-14","Xanomeline High Dose",81,71,"65-80",2,"WHITE",1,"M","Y","Y","Y","          Week 6",6,42,"2013-08-29",7,"WEEK 6","NPI-X Item B (Hallucination)  Score","NPITM02S",2,"",0,0,0,null,"","Y","","36 - 49",42,0,36,49,"DAYS",3085],["CDISCPILOT01","701","701","01-701-1028","2013-07-19","2014-01-14","Xanomeline High Dose",81,71,"65-80",2,"WHITE",1,"M","Y","Y","Y","          Week 8",8,54,"2013-09-10",8,"WEEK 8","NPI-X Item B (Hallucination)  Score","NPITM02S",2,"",0,0,0,null,"","Y","","50 - 63",56,2,50,63,"DAYS",3112],["CDISCPILOT01","701","701","01-701-1028","2013-07-19","2014-01-14","Xanomeline High Dose",81,71,"65-80",2,"WHITE",1,"M","Y","Y","Y","         Week 10",10,68,"2013-09-24",8.1,"WEEK 10 (T)","NPI-X Item B (Hallucination)  Score","NPITM02S",2,"",0,0,0,null,"","Y","","64 - 77",70,2,64,77,"DAYS",3141],["CDISCPILOT01","701","701","01-701-1028","2013-07-19","2014-01-14","Xanomeline High Dose",81,71,"65-80",2,"WHITE",1,"M","Y","Y","Y","         Week 12",12,83,"2013-10-09",9,"WEEK 12","NPI-X Item B (Hallucination)  Score","NPITM02S",2,"",0,0,0,null,"","Y","","78 - 91",84,1,78,91,"DAYS",3168],["CDISCPILOT01","701","701","01-701-1028","2013-07-19","2014-01-14","Xanomeline High Dose",81,71,"65-80",2,"WHITE",1,"M","Y","Y","Y","         Week 14",14,97,"2013-10-23",9.1,"WEEK 14 (T)","NPI-X Item B (Hallucination)  Score","NPITM02S",2,"",0,0,0,null,"","Y","","92 - 105",98,1,92,105,"DAYS",3195],["CDISCPILOT01","701","701","01-701-1028","2013-07-19","2014-01-14","Xanomeline High Dose",81,71,"65-80",2,"WHITE",1,"M","Y","Y","Y","         Week 16",16,111,"2013-11-06",10,"WEEK 16","NPI-X Item B (Hallucination)  Score","NPITM02S",2,"",0,0,0,null,"","Y","","106 - 119",112,1,106,119,"DAYS",3222],["CDISCPILOT01","701","701","01-701-1028","2013-07-19","2014-01-14","Xanomeline High Dose",81,71,"65-80",2,"WHITE",1,"M","Y","Y","Y","         Week 18",18,125,"2013-11-20",10.1,"WEEK 18 (T)","NPI-X Item B (Hallucination)  Score","NPITM02S",2,"",0,0,0,null,"","Y","","120 - 133",126,1,120,133,"DAYS",3249],["CDISCPILOT01","701","701","01-701-1028","2013-07-19","2014-01-14","Xanomeline High Dose",81,71,"65-80",2,"WHITE",1,"M","Y","Y","Y","         Week 20",20,139,"2013-12-04",11,"WEEK 20","NPI-X Item B (Hallucination)  Score","NPITM02S",2,"",0,0,0,null,"","Y","","134 - 147",140,1,134,147,"DAYS",3276],["CDISCPILOT01","701","701","01-701-1028","2013-07-19","2014-01-14","Xanomeline High Dose",81,71,"65-80",2,"WHITE",1,"M","Y","Y","Y","         Week 22",22,153,"2013-12-18",11.1,"WEEK 22 (T)","NPI-X Item B (Hallucination)  Score","NPITM02S",2,"",0,0,0,null,"","Y","","148 - 161",154,1,148,161,"DAYS",3303],["CDISCPILOT01","701","701","01-701-1028","2013-07-19","2014-01-14","Xanomeline High Dose",81,71,"65-80",2,"WHITE",1,"M","Y","Y","Y","         Week 24",24,172,"2014-01-06",12,"WEEK 24","NPI-X Item B (Hallucination)  Score","NPITM02S",2,"",0,0,0,null,"","Y","","162 - 175",168,4,162,175,"DAYS",3330],["CDISCPILOT01","701","701","01-701-1028","2013-07-19","2014-01-14","Xanomeline High Dose",81,71,"65-80",2,"WHITE",1,"M","Y","Y","Y","         Week 26",26,180,"2014-01-14",13,"WEEK 26","NPI-X Item B (Hallucination)  Score","NPITM02S",2,"",0,0,0,null,"","Y","",">175",182,2,176,null,"DAYS",3357],["CDISCPILOT01","701","701","01-701-1028","2013-07-19","2014-01-14","Xanomeline High Dose",81,71,"65-80",2,"WHITE",1,"M","Y","Y","Y","        Baseline",0,1,"2013-07-19",3,"BASELINE","NPI-X Item C (Agitation/Agression) Score","NPITM03S",3,"",0,0,0,null,"Y","Y","","<= 1",1,0,null,1,"DAYS",3006],["CDISCPILOT01","701","701","01-701-1028","2013-07-19","2014-01-14","Xanomeline High Dose",81,71,"65-80",2,"WHITE",1,"M","Y","Y","Y","          Week 2",2,14,"2013-08-01",4,"WEEK 2","NPI-X Item C (Agitation/Agression) Score","NPITM03S",3,"",0,0,0,null,"","Y","","2 - 21",14,0,2,21,"DAYS",3033],["CDISCPILOT01","701","701","01-701-1028","2013-07-19","2014-01-14","Xanomeline High Dose",81,71,"65-80",2,"WHITE",1,"M","Y","Y","Y","          Week 4",4,27,"2013-08-14",5,"WEEK 4","NPI-X Item C (Agitation/Agression) Score","NPITM03S",3,"",0,0,0,null,"","Y","","22 - 35",28,1,22,35,"DAYS",3060],["CDISCPILOT01","701","701","01-701-1028","2013-07-19","2014-01-14","Xanomeline High Dose",81,71,"65-80",2,"WHITE",1,"M","Y","Y","Y","          Week 6",6,42,"2013-08-29",7,"WEEK 6","NPI-X Item C (Agitation/Agression) Score","NPITM03S",3,"",0,0,0,null,"","Y","","36 - 49",42,0,36,49,"DAYS",3087],["CDISCPILOT01","701","701","01-701-1028","2013-07-19","2014-01-14","Xanomeline High Dose",81,71,"65-80",2,"WHITE",1,"M","Y","Y","Y","          Week 8",8,54,"2013-09-10",8,"WEEK 8","NPI-X Item C (Agitation/Agression) Score","NPITM03S",3,"",0,0,0,null,"","Y","","50 - 63",56,2,50,63,"DAYS",3114],["CDISCPILOT01","701","701","01-701-1028","2013-07-19","2014-01-14","Xanomeline High Dose",81,71,"65-80",2,"WHITE",1,"M","Y","Y","Y","         Week 10",10,68,"2013-09-24",8.1,"WEEK 10 (T)","NPI-X Item C (Agitation/Agression) Score","NPITM03S",3,"",0,0,0,null,"","Y","","64 - 77",70,2,64,77,"DAYS",3143],["CDISCPILOT01","701","701","01-701-1028","2013-07-19","2014-01-14","Xanomeline High Dose",81,71,"65-80",2,"WHITE",1,"M","Y","Y","Y","         Week 12",12,83,"2013-10-09",9,"WEEK 12","NPI-X Item C (Agitation/Agression) Score","NPITM03S",3,"",0,0,0,null,"","Y","","78 - 91",84,1,78,91,"DAYS",3170],["CDISCPILOT01","701","701","01-701-1028","2013-07-19","2014-01-14","Xanomeline High Dose",81,71,"65-80",2,"WHITE",1,"M","Y","Y","Y","         Week 14",14,97,"2013-10-23",9.1,"WEEK 14 (T)","NPI-X Item C (Agitation/Agression) Score","NPITM03S",3,"",0,0,0,null,"","Y","","92 - 105",98,1,92,105,"DAYS",3197],["CDISCPILOT01","701","701","01-701-1028","2013-07-19","2014-01-14","Xanomeline High Dose",81,71,"65-80",2,"WHITE",1,"M","Y","Y","Y","         Week 16",16,111,"2013-11-06",10,"WEEK 16","NPI-X Item C (Agitation/Agression) Score","NPITM03S",3,"",0,0,0,null,"","Y","","106 - 119",112,1,106,119,"DAYS",3224],["CDISCPILOT01","701","701","01-701-1028","2013-07-19","2014-01-14","Xanomeline High Dose",81,71,"65-80",2,"WHITE",1,"M","Y","Y","Y","         Week 18",18,125,"2013-11-20",10.1,"WEEK 18 (T)","NPI-X Item C (Agitation/Agression) Score","NPITM03S",3,"",0,0,0,null,"","Y","","120 - 133",126,1,120,133,"DAYS",3251],["CDISCPILOT01","701","701","01-701-1028","2013-07-19","2014-01-14","Xanomeline High Dose",81,71,"65-80",2,"WHITE",1,"M","Y","Y","Y","         Week 20",20,139,"2013-12-04",11,"WEEK 20","NPI-X Item C (Agitation/Agression) Score","NPITM03S",3,"",0,0,0,null,"","Y","","134 - 147",140,1,134,147,"DAYS",3278],["CDISCPILOT01","701","701","01-701-1028","2013-07-19","2014-01-14","Xanomeline High Dose",81,71,"65-80",2,"WHITE",1,"M","Y","Y","Y","         Week 22",22,153,"2013-12-18",11.1,"WEEK 22 (T)","NPI-X Item C (Agitation/Agression) Score","NPITM03S",3,"",0,0,0,null,"","Y","","148 - 161",154,1,148,161,"DAYS",3305],["CDISCPILOT01","701","701","01-701-1028","2013-07-19","2014-01-14","Xanomeline High Dose",81,71,"65-80",2,"WHITE",1,"M","Y","Y","Y","         Week 24",24,172,"2014-01-06",12,"WEEK 24","NPI-X Item C (Agitation/Agression) Score","NPITM03S",3,"",0,0,0,null,"","Y","","162 - 175",168,4,162,175,"DAYS",3332],["CDISCPILOT01","701","701","01-701-1028","2013-07-19","2014-01-14","Xanomeline High Dose",81,71,"65-80",2,"WHITE",1,"M","Y","Y","Y","         Week 26",26,180,"2014-01-14",13,"WEEK 26","NPI-X Item C (Agitation/Agression) Score","NPITM03S",3,"",0,0,0,null,"","Y","",">175",182,2,176,null,"DAYS",3359],["CDISCPILOT01","701","701","01-701-1028","2013-07-19","2014-01-14","Xanomeline High Dose",81,71,"65-80",2,"WHITE",1,"M","Y","Y","Y","        Baseline",0,1,"2013-07-19",3,"BASELINE","NPI-X Item D (Depression/Dysphoria) Score","NPITM04S",4,"",0,0,0,null,"Y","Y","","<= 1",1,0,null,1,"DAYS",3008],["CDISCPILOT01","701","701","01-701-1028","2013-07-19","2014-01-14","Xanomeline High Dose",81,71,"65-80",2,"WHITE",1,"M","Y","Y","Y","          Week 2",2,14,"2013-08-01",4,"WEEK 2","NPI-X Item D (Depression/Dysphoria) Score","NPITM04S",4,"",0,0,0,null,"","Y","","2 - 21",14,0,2,21,"DAYS",3035],["CDISCPILOT01","701","701","01-701-1028","2013-07-19","2014-01-14","Xanomeline High Dose",81,71,"65-80",2,"WHITE",1,"M","Y","Y","Y","          Week 4",4,27,"2013-08-14",5,"WEEK 4","NPI-X Item D (Depression/Dysphoria) Score","NPITM04S",4,"",0,0,0,null,"","Y","","22 - 35",28,1,22,35,"DAYS",3062],["CDISCPILOT01","701","701","01-701-1028","2013-07-19","2014-01-14","Xanomeline High Dose",81,71,"65-80",2,"WHITE",1,"M","Y","Y","Y","          Week 6",6,42,"2013-08-29",7,"WEEK 6","NPI-X Item D (Depression/Dysphoria) Score","NPITM04S",4,"",0,0,0,null,"","Y","","36 - 49",42,0,36,49,"DAYS",3089],["CDISCPILOT01","701","701","01-701-1028","2013-07-19","2014-01-14","Xanomeline High Dose",81,71,"65-80",2,"WHITE",1,"M","Y","Y","Y","          Week 8",8,54,"2013-09-10",8,"WEEK 8","NPI-X Item D (Depression/Dysphoria) Score","NPITM04S",4,"",0,0,0,null,"","Y","","50 - 63",56,2,50,63,"DAYS",3116],["CDISCPILOT01","701","701","01-701-1028","2013-07-19","2014-01-14","Xanomeline High Dose",81,71,"65-80",2,"WHITE",1,"M","Y","Y","Y","         Week 10",10,68,"2013-09-24",8.1,"WEEK 10 (T)","NPI-X Item D (Depression/Dysphoria) Score","NPITM04S",4,"",0,0,0,null,"","Y","","64 - 77",70,2,64,77,"DAYS",3145],["CDISCPILOT01","701","701","01-701-1028","2013-07-19","2014-01-14","Xanomeline High Dose",81,71,"65-80",2,"WHITE",1,"M","Y","Y","Y","         Week 12",12,83,"2013-10-09",9,"WEEK 12","NPI-X Item D (Depression/Dysphoria) Score","NPITM04S",4,"",0,0,0,null,"","Y","","78 - 91",84,1,78,91,"DAYS",3172],["CDISCPILOT01","701","701","01-701-1028","2013-07-19","2014-01-14","Xanomeline High Dose",81,71,"65-80",2,"WHITE",1,"M","Y","Y","Y","         Week 14",14,97,"2013-10-23",9.1,"WEEK 14 (T)","NPI-X Item D (Depression/Dysphoria) Score","NPITM04S",4,"",0,0,0,null,"","Y","","92 - 105",98,1,92,105,"DAYS",3199],["CDISCPILOT01","701","701","01-701-1028","2013-07-19","2014-01-14","Xanomeline High Dose",81,71,"65-80",2,"WHITE",1,"M","Y","Y","Y","         Week 16",16,111,"2013-11-06",10,"WEEK 16","NPI-X Item D (Depression/Dysphoria) Score","NPITM04S",4,"",0,0,0,null,"","Y","","106 - 119",112,1,106,119,"DAYS",3226],["CDISCPILOT01","701","701","01-701-1028","2013-07-19","2014-01-14","Xanomeline High Dose",81,71,"65-80",2,"WHITE",1,"M","Y","Y","Y","         Week 18",18,125,"2013-11-20",10.1,"WEEK 18 (T)","NPI-X Item D (Depression/Dysphoria) Score","NPITM04S",4,"",0,0,0,null,"","Y","","120 - 133",126,1,120,133,"DAYS",3253],["CDISCPILOT01","701","701","01-701-1028","2013-07-19","2014-01-14","Xanomeline High Dose",81,71,"65-80",2,"WHITE",1,"M","Y","Y","Y","         Week 20",20,139,"2013-12-04",11,"WEEK 20","NPI-X Item D (Depression/Dysphoria) Score","NPITM04S",4,"",0,0,0,null,"","Y","","134 - 147",140,1,134,147,"DAYS",3280],["CDISCPILOT01","701","701","01-701-1028","2013-07-19","2014-01-14","Xanomeline High Dose",81,71,"65-80",2,"WHITE",1,"M","Y","Y","Y","         Week 22",22,153,"2013-12-18",11.1,"WEEK 22 (T)","NPI-X Item D (Depression/Dysphoria) Score","NPITM04S",4,"",0,0,0,null,"","Y","","148 - 161",154,1,148,161,"DAYS",3307],["CDISCPILOT01","701","701","01-701-1028","2013-07-19","2014-01-14","Xanomeline High Dose",81,71,"65-80",2,"WHITE",1,"M","Y","Y","Y","         Week 24",24,172,"2014-01-06",12,"WEEK 24","NPI-X Item D (Depression/Dysphoria) Score","NPITM04S",4,"",0,0,0,null,"","Y","","162 - 175",168,4,162,175,"DAYS",3334],["CDISCPILOT01","701","701","01-701-1028","2013-07-19","2014-01-14","Xanomeline High Dose",81,71,"65-80",2,"WHITE",1,"M","Y","Y","Y","         Week 26",26,180,"2014-01-14",13,"WEEK 26","NPI-X Item D (Depression/Dysphoria) Score","NPITM04S",4,"",0,0,0,null,"","Y","",">175",182,2,176,null,"DAYS",3361],["CDISCPILOT01","701","701","01-701-1028","2013-07-19","2014-01-14","Xanomeline High Dose",81,71,"65-80",2,"WHITE",1,"M","Y","Y","Y","        Baseline",0,1,"2013-07-19",3,"BASELINE","NPI-X Item E (Anxiety) Score","NPITM05S",5,"",0,0,0,null,"Y","Y","","<= 1",1,0,null,1,"DAYS",3010],["CDISCPILOT01","701","701","01-701-1028","2013-07-19","2014-01-14","Xanomeline High Dose",81,71,"65-80",2,"WHITE",1,"M","Y","Y","Y","          Week 2",2,14,"2013-08-01",4,"WEEK 2","NPI-X Item E (Anxiety) Score","NPITM05S",5,"",0,0,0,null,"","Y","","2 - 21",14,0,2,21,"DAYS",3037],["CDISCPILOT01","701","701","01-701-1028","2013-07-19","2014-01-14","Xanomeline High Dose",81,71,"65-80",2,"WHITE",1,"M","Y","Y","Y","          Week 4",4,27,"2013-08-14",5,"WEEK 4","NPI-X Item E (Anxiety) Score","NPITM05S",5,"",0,0,0,null,"","Y","","22 - 35",28,1,22,35,"DAYS",3064],["CDISCPILOT01","701","701","01-701-1028","2013-07-19","2014-01-14","Xanomeline High Dose",81,71,"65-80",2,"WHITE",1,"M","Y","Y","Y","          Week 6",6,42,"2013-08-29",7,"WEEK 6","NPI-X Item E (Anxiety) Score","NPITM05S",5,"",0,0,0,null,"","Y","","36 - 49",42,0,36,49,"DAYS",3091],["CDISCPILOT01","701","701","01-701-1028","2013-07-19","2014-01-14","Xanomeline High Dose",81,71,"65-80",2,"WHITE",1,"M","Y","Y","Y","          Week 8",8,54,"2013-09-10",8,"WEEK 8","NPI-X Item E (Anxiety) Score","NPITM05S",5,"",0,0,0,null,"","Y","","50 - 63",56,2,50,63,"DAYS",3118],["CDISCPILOT01","701","701","01-701-1028","2013-07-19","2014-01-14","Xanomeline High Dose",81,71,"65-80",2,"WHITE",1,"M","Y","Y","Y","         Week 10",10,68,"2013-09-24",8.1,"WEEK 10 (T)","NPI-X Item E (Anxiety) Score","NPITM05S",5,"",0,0,0,null,"","Y","","64 - 77",70,2,64,77,"DAYS",3147],["CDISCPILOT01","701","701","01-701-1028","2013-07-19","2014-01-14","Xanomeline High Dose",81,71,"65-80",2,"WHITE",1,"M","Y","Y","Y","         Week 12",12,83,"2013-10-09",9,"WEEK 12","NPI-X Item E (Anxiety) Score","NPITM05S",5,"",0,0,0,null,"","Y","","78 - 91",84,1,78,91,"DAYS",3174],["CDISCPILOT01","701","701","01-701-1028","2013-07-19","2014-01-14","Xanomeline High Dose",81,71,"65-80",2,"WHITE",1,"M","Y","Y","Y","         Week 14",14,97,"2013-10-23",9.1,"WEEK 14 (T)","NPI-X Item E (Anxiety) Score","NPITM05S",5,"",0,0,0,null,"","Y","","92 - 105",98,1,92,105,"DAYS",3201],["CDISCPILOT01","701","701","01-701-1028","2013-07-19","2014-01-14","Xanomeline High Dose",81,71,"65-80",2,"WHITE",1,"M","Y","Y","Y","         Week 16",16,111,"2013-11-06",10,"WEEK 16","NPI-X Item E (Anxiety) Score","NPITM05S",5,"",0,0,0,null,"","Y","","106 - 119",112,1,106,119,"DAYS",3228],["CDISCPILOT01","701","701","01-701-1028","2013-07-19","2014-01-14","Xanomeline High Dose",81,71,"65-80",2,"WHITE",1,"M","Y","Y","Y","         Week 18",18,125,"2013-11-20",10.1,"WEEK 18 (T)","NPI-X Item E (Anxiety) Score","NPITM05S",5,"",0,0,0,null,"","Y","","120 - 133",126,1,120,133,"DAYS",3255],["CDISCPILOT01","701","701","01-701-1028","2013-07-19","2014-01-14","Xanomeline High Dose",81,71,"65-80",2,"WHITE",1,"M","Y","Y","Y","         Week 20",20,139,"2013-12-04",11,"WEEK 20","NPI-X Item E (Anxiety) Score","NPITM05S",5,"",0,0,0,null,"","Y","","134 - 147",140,1,134,147,"DAYS",3282],["CDISCPILOT01","701","701","01-701-1028","2013-07-19","2014-01-14","Xanomeline High Dose",81,71,"65-80",2,"WHITE",1,"M","Y","Y","Y","         Week 22",22,153,"2013-12-18",11.1,"WEEK 22 (T)","NPI-X Item E (Anxiety) Score","NPITM05S",5,"",0,0,0,null,"","Y","","148 - 161",154,1,148,161,"DAYS",3309],["CDISCPILOT01","701","701","01-701-1028","2013-07-19","2014-01-14","Xanomeline High Dose",81,71,"65-80",2,"WHITE",1,"M","Y","Y","Y","         Week 24",24,172,"2014-01-06",12,"WEEK 24","NPI-X Item E (Anxiety) Score","NPITM05S",5,"",0,0,0,null,"","Y","","162 - 175",168,4,162,175,"DAYS",3336],["CDISCPILOT01","701","701","01-701-1028","2013-07-19","2014-01-14","Xanomeline High Dose",81,71,"65-80",2,"WHITE",1,"M","Y","Y","Y","         Week 26",26,180,"2014-01-14",13,"WEEK 26","NPI-X Item E (Anxiety) Score","NPITM05S",5,"",0,0,0,null,"","Y","",">175",182,2,176,null,"DAYS",3363],["CDISCPILOT01","701","701","01-701-1028","2013-07-19","2014-01-14","Xanomeline High Dose",81,71,"65-80",2,"WHITE",1,"M","Y","Y","Y","        Baseline",0,1,"2013-07-19",3,"BASELINE","NPI-X Item F (Eupohoria/Elation) Score","NPITM06S",6,"",0,0,0,null,"Y","Y","","<= 1",1,0,null,1,"DAYS",3012],["CDISCPILOT01","701","701","01-701-1028","2013-07-19","2014-01-14","Xanomeline High Dose",81,71,"65-80",2,"WHITE",1,"M","Y","Y","Y","          Week 2",2,14,"2013-08-01",4,"WEEK 2","NPI-X Item F (Eupohoria/Elation) Score","NPITM06S",6,"",0,0,0,null,"","Y","","2 - 21",14,0,2,21,"DAYS",3039],["CDISCPILOT01","701","701","01-701-1028","2013-07-19","2014-01-14","Xanomeline High Dose",81,71,"65-80",2,"WHITE",1,"M","Y","Y","Y","          Week 4",4,27,"2013-08-14",5,"WEEK 4","NPI-X Item F (Eupohoria/Elation) Score","NPITM06S",6,"",0,0,0,null,"","Y","","22 - 35",28,1,22,35,"DAYS",3066],["CDISCPILOT01","701","701","01-701-1028","2013-07-19","2014-01-14","Xanomeline High Dose",81,71,"65-80",2,"WHITE",1,"M","Y","Y","Y","          Week 6",6,42,"2013-08-29",7,"WEEK 6","NPI-X Item F (Eupohoria/Elation) Score","NPITM06S",6,"",0,0,0,null,"","Y","","36 - 49",42,0,36,49,"DAYS",3093],["CDISCPILOT01","701","701","01-701-1028","2013-07-19","2014-01-14","Xanomeline High Dose",81,71,"65-80",2,"WHITE",1,"M","Y","Y","Y","          Week 8",8,54,"2013-09-10",8,"WEEK 8","NPI-X Item F (Eupohoria/Elation) Score","NPITM06S",6,"",0,0,0,null,"","Y","","50 - 63",56,2,50,63,"DAYS",3122],["CDISCPILOT01","701","701","01-701-1028","2013-07-19","2014-01-14","Xanomeline High Dose",81,71,"65-80",2,"WHITE",1,"M","Y","Y","Y","         Week 10",10,68,"2013-09-24",8.1,"WEEK 10 (T)","NPI-X Item F (Eupohoria/Elation) Score","NPITM06S",6,"",0,0,0,null,"","Y","","64 - 77",70,2,64,77,"DAYS",3149],["CDISCPILOT01","701","701","01-701-1028","2013-07-19","2014-01-14","Xanomeline High Dose",81,71,"65-80",2,"WHITE",1,"M","Y","Y","Y","         Week 12",12,83,"2013-10-09",9,"WEEK 12","NPI-X Item F (Eupohoria/Elation) Score","NPITM06S",6,"",0,0,0,null,"","Y","","78 - 91",84,1,78,91,"DAYS",3176],["CDISCPILOT01","701","701","01-701-1028","2013-07-19","2014-01-14","Xanomeline High Dose",81,71,"65-80",2,"WHITE",1,"M","Y","Y","Y","         Week 14",14,97,"2013-10-23",9.1,"WEEK 14 (T)","NPI-X Item F (Eupohoria/Elation) Score","NPITM06S",6,"",0,0,0,null,"","Y","","92 - 105",98,1,92,105,"DAYS",3203],["CDISCPILOT01","701","701","01-701-1028","2013-07-19","2014-01-14","Xanomeline High Dose",81,71,"65-80",2,"WHITE",1,"M","Y","Y","Y","         Week 16",16,111,"2013-11-06",10,"WEEK 16","NPI-X Item F (Eupohoria/Elation) Score","NPITM06S",6,"",0,0,0,null,"","Y","","106 - 119",112,1,106,119,"DAYS",3230],["CDISCPILOT01","701","701","01-701-1028","2013-07-19","2014-01-14","Xanomeline High Dose",81,71,"65-80",2,"WHITE",1,"M","Y","Y","Y","         Week 18",18,125,"2013-11-20",10.1,"WEEK 18 (T)","NPI-X Item F (Eupohoria/Elation) Score","NPITM06S",6,"",0,0,0,null,"","Y","","120 - 133",126,1,120,133,"DAYS",3257],["CDISCPILOT01","701","701","01-701-1028","2013-07-19","2014-01-14","Xanomeline High Dose",81,71,"65-80",2,"WHITE",1,"M","Y","Y","Y","         Week 20",20,139,"2013-12-04",11,"WEEK 20","NPI-X Item F (Eupohoria/Elation) Score","NPITM06S",6,"",0,0,0,null,"","Y","","134 - 147",140,1,134,147,"DAYS",3284],["CDISCPILOT01","701","701","01-701-1028","2013-07-19","2014-01-14","Xanomeline High Dose",81,71,"65-80",2,"WHITE",1,"M","Y","Y","Y","         Week 22",22,153,"2013-12-18",11.1,"WEEK 22 (T)","NPI-X Item F (Eupohoria/Elation) Score","NPITM06S",6,"",0,0,0,null,"","Y","","148 - 161",154,1,148,161,"DAYS",3311],["CDISCPILOT01","701","701","01-701-1028","2013-07-19","2014-01-14","Xanomeline High Dose",81,71,"65-80",2,"WHITE",1,"M","Y","Y","Y","         Week 24",24,172,"2014-01-06",12,"WEEK 24","NPI-X Item F (Eupohoria/Elation) Score","NPITM06S",6,"",0,0,0,null,"","Y","","162 - 175",168,4,162,175,"DAYS",3338],["CDISCPILOT01","701","701","01-701-1028","2013-07-19","2014-01-14","Xanomeline High Dose",81,71,"65-80",2,"WHITE",1,"M","Y","Y","Y","         Week 26",26,180,"2014-01-14",13,"WEEK 26","NPI-X Item F (Eupohoria/Elation) Score","NPITM06S",6,"",0,0,0,null,"","Y","",">175",182,2,176,null,"DAYS",3365],["CDISCPILOT01","701","701","01-701-1028","2013-07-19","2014-01-14","Xanomeline High Dose",81,71,"65-80",2,"WHITE",1,"M","Y","Y","Y","        Baseline",0,1,"2013-07-19",3,"BASELINE","NPI-X Item G (Apathy/Indifference) Score","NPITM07S",7,"",0,0,0,null,"Y","Y","","<= 1",1,0,null,1,"DAYS",3014],["CDISCPILOT01","701","701","01-701-1028","2013-07-19","2014-01-14","Xanomeline High Dose",81,71,"65-80",2,"WHITE",1,"M","Y","Y","Y","          Week 2",2,14,"2013-08-01",4,"WEEK 2","NPI-X Item G (Apathy/Indifference) Score","NPITM07S",7,"",0,0,0,null,"","Y","","2 - 21",14,0,2,21,"DAYS",3041],["CDISCPILOT01","701","701","01-701-1028","2013-07-19","2014-01-14","Xanomeline High Dose",81,71,"65-80",2,"WHITE",1,"M","Y","Y","Y","          Week 4",4,27,"2013-08-14",5,"WEEK 4","NPI-X Item G (Apathy/Indifference) Score","NPITM07S",7,"",0,0,0,null,"","Y","","22 - 35",28,1,22,35,"DAYS",3068],["CDISCPILOT01","701","701","01-701-1028","2013-07-19","2014-01-14","Xanomeline High Dose",81,71,"65-80",2,"WHITE",1,"M","Y","Y","Y","          Week 6",6,42,"2013-08-29",7,"WEEK 6","NPI-X Item G (Apathy/Indifference) Score","NPITM07S",7,"",0,0,0,null,"","Y","","36 - 49",42,0,36,49,"DAYS",3095],["CDISCPILOT01","701","701","01-701-1028","2013-07-19","2014-01-14","Xanomeline High Dose",81,71,"65-80",2,"WHITE",1,"M","Y","Y","Y","          Week 8",8,54,"2013-09-10",8,"WEEK 8","NPI-X Item G (Apathy/Indifference) Score","NPITM07S",7,"",0,0,0,null,"","Y","","50 - 63",56,2,50,63,"DAYS",3124],["CDISCPILOT01","701","701","01-701-1028","2013-07-19","2014-01-14","Xanomeline High Dose",81,71,"65-80",2,"WHITE",1,"M","Y","Y","Y","         Week 10",10,68,"2013-09-24",8.1,"WEEK 10 (T)","NPI-X Item G (Apathy/Indifference) Score","NPITM07S",7,"",0,0,0,null,"","Y","","64 - 77",70,2,64,77,"DAYS",3151],["CDISCPILOT01","701","701","01-701-1028","2013-07-19","2014-01-14","Xanomeline High Dose",81,71,"65-80",2,"WHITE",1,"M","Y","Y","Y","         Week 12",12,83,"2013-10-09",9,"WEEK 12","NPI-X Item G (Apathy/Indifference) Score","NPITM07S",7,"",0,0,0,null,"","Y","","78 - 91",84,1,78,91,"DAYS",3178],["CDISCPILOT01","701","701","01-701-1028","2013-07-19","2014-01-14","Xanomeline High Dose",81,71,"65-80",2,"WHITE",1,"M","Y","Y","Y","         Week 14",14,97,"2013-10-23",9.1,"WEEK 14 (T)","NPI-X Item G (Apathy/Indifference) Score","NPITM07S",7,"",0,0,0,null,"","Y","","92 - 105",98,1,92,105,"DAYS",3205],["CDISCPILOT01","701","701","01-701-1028","2013-07-19","2014-01-14","Xanomeline High Dose",81,71,"65-80",2,"WHITE",1,"M","Y","Y","Y","         Week 16",16,111,"2013-11-06",10,"WEEK 16","NPI-X Item G (Apathy/Indifference) Score","NPITM07S",7,"",0,0,0,null,"","Y","","106 - 119",112,1,106,119,"DAYS",3232],["CDISCPILOT01","701","701","01-701-1028","2013-07-19","2014-01-14","Xanomeline High Dose",81,71,"65-80",2,"WHITE",1,"M","Y","Y","Y","         Week 18",18,125,"2013-11-20",10.1,"WEEK 18 (T)","NPI-X Item G (Apathy/Indifference) Score","NPITM07S",7,"",0,0,0,null,"","Y","","120 - 133",126,1,120,133,"DAYS",3259],["CDISCPILOT01","701","701","01-701-1028","2013-07-19","2014-01-14","Xanomeline High Dose",81,71,"65-80",2,"WHITE",1,"M","Y","Y","Y","         Week 20",20,139,"2013-12-04",11,"WEEK 20","NPI-X Item G (Apathy/Indifference) Score","NPITM07S",7,"",0,0,0,null,"","Y","","134 - 147",140,1,134,147,"DAYS",3286],["CDISCPILOT01","701","701","01-701-1028","2013-07-19","2014-01-14","Xanomeline High Dose",81,71,"65-80",2,"WHITE",1,"M","Y","Y","Y","         Week 22",22,153,"2013-12-18",11.1,"WEEK 22 (T)","NPI-X Item G (Apathy/Indifference) Score","NPITM07S",7,"",0,0,0,null,"","Y","","148 - 161",154,1,148,161,"DAYS",3313],["CDISCPILOT01","701","701","01-701-1028","2013-07-19","2014-01-14","Xanomeline High Dose",81,71,"65-80",2,"WHITE",1,"M","Y","Y","Y","         Week 24",24,172,"2014-01-06",12,"WEEK 24","NPI-X Item G (Apathy/Indifference) Score","NPITM07S",7,"",0,0,0,null,"","Y","","162 - 175",168,4,162,175,"DAYS",3340],["CDISCPILOT01","701","701","01-701-1028","2013-07-19","2014-01-14","Xanomeline High Dose",81,71,"65-80",2,"WHITE",1,"M","Y","Y","Y","         Week 26",26,180,"2014-01-14",13,"WEEK 26","NPI-X Item G (Apathy/Indifference) Score","NPITM07S",7,"",0,0,0,null,"","Y","",">175",182,2,176,null,"DAYS",3367],["CDISCPILOT01","701","701","01-701-1028","2013-07-19","2014-01-14","Xanomeline High Dose",81,71,"65-80",2,"WHITE",1,"M","Y","Y","Y","        Baseline",0,1,"2013-07-19",3,"BASELINE","NPI-X Item H (Disinhibition) Score","NPITM08S",8,"",0,0,0,null,"Y","Y","","<= 1",1,0,null,1,"DAYS",3016],["CDISCPILOT01","701","701","01-701-1028","2013-07-19","2014-01-14","Xanomeline High Dose",81,71,"65-80",2,"WHITE",1,"M","Y","Y","Y","          Week 2",2,14,"2013-08-01",4,"WEEK 2","NPI-X Item H (Disinhibition) Score","NPITM08S",8,"",0,0,0,null,"","Y","","2 - 21",14,0,2,21,"DAYS",3043],["CDISCPILOT01","701","701","01-701-1028","2013-07-19","2014-01-14","Xanomeline High Dose",81,71,"65-80",2,"WHITE",1,"M","Y","Y","Y","          Week 4",4,27,"2013-08-14",5,"WEEK 4","NPI-X Item H (Disinhibition) Score","NPITM08S",8,"",0,0,0,null,"","Y","","22 - 35",28,1,22,35,"DAYS",3070],["CDISCPILOT01","701","701","01-701-1028","2013-07-19","2014-01-14","Xanomeline High Dose",81,71,"65-80",2,"WHITE",1,"M","Y","Y","Y","          Week 6",6,42,"2013-08-29",7,"WEEK 6","NPI-X Item H (Disinhibition) Score","NPITM08S",8,"",0,0,0,null,"","Y","","36 - 49",42,0,36,49,"DAYS",3097],["CDISCPILOT01","701","701","01-701-1028","2013-07-19","2014-01-14","Xanomeline High Dose",81,71,"65-80",2,"WHITE",1,"M","Y","Y","Y","          Week 8",8,54,"2013-09-10",8,"WEEK 8","NPI-X Item H (Disinhibition) Score","NPITM08S",8,"",0,0,0,null,"","Y","","50 - 63",56,2,50,63,"DAYS",3126],["CDISCPILOT01","701","701","01-701-1028","2013-07-19","2014-01-14","Xanomeline High Dose",81,71,"65-80",2,"WHITE",1,"M","Y","Y","Y","         Week 10",10,68,"2013-09-24",8.1,"WEEK 10 (T)","NPI-X Item H (Disinhibition) Score","NPITM08S",8,"",0,0,0,null,"","Y","","64 - 77",70,2,64,77,"DAYS",3153],["CDISCPILOT01","701","701","01-701-1028","2013-07-19","2014-01-14","Xanomeline High Dose",81,71,"65-80",2,"WHITE",1,"M","Y","Y","Y","         Week 12",12,83,"2013-10-09",9,"WEEK 12","NPI-X Item H (Disinhibition) Score","NPITM08S",8,"",0,0,0,null,"","Y","","78 - 91",84,1,78,91,"DAYS",3180],["CDISCPILOT01","701","701","01-701-1028","2013-07-19","2014-01-14","Xanomeline High Dose",81,71,"65-80",2,"WHITE",1,"M","Y","Y","Y","         Week 14",14,97,"2013-10-23",9.1,"WEEK 14 (T)","NPI-X Item H (Disinhibition) Score","NPITM08S",8,"",0,0,0,null,"","Y","","92 - 105",98,1,92,105,"DAYS",3207],["CDISCPILOT01","701","701","01-701-1028","2013-07-19","2014-01-14","Xanomeline High Dose",81,71,"65-80",2,"WHITE",1,"M","Y","Y","Y","         Week 16",16,111,"2013-11-06",10,"WEEK 16","NPI-X Item H (Disinhibition) Score","NPITM08S",8,"",0,0,0,null,"","Y","","106 - 119",112,1,106,119,"DAYS",3234],["CDISCPILOT01","701","701","01-701-1028","2013-07-19","2014-01-14","Xanomeline High Dose",81,71,"65-80",2,"WHITE",1,"M","Y","Y","Y","         Week 18",18,125,"2013-11-20",10.1,"WEEK 18 (T)","NPI-X Item H (Disinhibition) Score","NPITM08S",8,"",0,0,0,null,"","Y","","120 - 133",126,1,120,133,"DAYS",3261],["CDISCPILOT01","701","701","01-701-1028","2013-07-19","2014-01-14","Xanomeline High Dose",81,71,"65-80",2,"WHITE",1,"M","Y","Y","Y","         Week 20",20,139,"2013-12-04",11,"WEEK 20","NPI-X Item H (Disinhibition) Score","NPITM08S",8,"",0,0,0,null,"","Y","","134 - 147",140,1,134,147,"DAYS",3288],["CDISCPILOT01","701","701","01-701-1028","2013-07-19","2014-01-14","Xanomeline High Dose",81,71,"65-80",2,"WHITE",1,"M","Y","Y","Y","         Week 22",22,153,"2013-12-18",11.1,"WEEK 22 (T)","NPI-X Item H (Disinhibition) Score","NPITM08S",8,"",0,0,0,null,"","Y","","148 - 161",154,1,148,161,"DAYS",3315],["CDISCPILOT01","701","701","01-701-1028","2013-07-19","2014-01-14","Xanomeline High Dose",81,71,"65-80",2,"WHITE",1,"M","Y","Y","Y","         Week 24",24,172,"2014-01-06",12,"WEEK 24","NPI-X Item H (Disinhibition) Score","NPITM08S",8,"",0,0,0,null,"","Y","","162 - 175",168,4,162,175,"DAYS",3342],["CDISCPILOT01","701","701","01-701-1028","2013-07-19","2014-01-14","Xanomeline High Dose",81,71,"65-80",2,"WHITE",1,"M","Y","Y","Y","         Week 26",26,180,"2014-01-14",13,"WEEK 26","NPI-X Item H (Disinhibition) Score","NPITM08S",8,"",0,0,0,null,"","Y","",">175",182,2,176,null,"DAYS",3369],["CDISCPILOT01","701","701","01-701-1028","2013-07-19","2014-01-14","Xanomeline High Dose",81,71,"65-80",2,"WHITE",1,"M","Y","Y","Y","        Baseline",0,1,"2013-07-19",3,"BASELINE","NPI-X Item I (Irritability/Lability) Score","NPITM09S",9,"",0,0,0,null,"Y","Y","","<= 1",1,0,null,1,"DAYS",3018],["CDISCPILOT01","701","701","01-701-1028","2013-07-19","2014-01-14","Xanomeline High Dose",81,71,"65-80",2,"WHITE",1,"M","Y","Y","Y","          Week 2",2,14,"2013-08-01",4,"WEEK 2","NPI-X Item I (Irritability/Lability) Score","NPITM09S",9,"",0,0,0,null,"","Y","","2 - 21",14,0,2,21,"DAYS",3045],["CDISCPILOT01","701","701","01-701-1028","2013-07-19","2014-01-14","Xanomeline High Dose",81,71,"65-80",2,"WHITE",1,"M","Y","Y","Y","          Week 4",4,27,"2013-08-14",5,"WEEK 4","NPI-X Item I (Irritability/Lability) Score","NPITM09S",9,"",0,0,0,null,"","Y","","22 - 35",28,1,22,35,"DAYS",3072],["CDISCPILOT01","701","701","01-701-1028","2013-07-19","2014-01-14","Xanomeline High Dose",81,71,"65-80",2,"WHITE",1,"M","Y","Y","Y","          Week 6",6,42,"2013-08-29",7,"WEEK 6","NPI-X Item I (Irritability/Lability) Score","NPITM09S",9,"",0,0,0,null,"","Y","","36 - 49",42,0,36,49,"DAYS",3099],["CDISCPILOT01","701","701","01-701-1028","2013-07-19","2014-01-14","Xanomeline High Dose",81,71,"65-80",2,"WHITE",1,"M","Y","Y","Y","          Week 8",8,54,"2013-09-10",8,"WEEK 8","NPI-X Item I (Irritability/Lability) Score","NPITM09S",9,"",0,0,0,null,"","Y","","50 - 63",56,2,50,63,"DAYS",3128],["CDISCPILOT01","701","701","01-701-1028","2013-07-19","2014-01-14","Xanomeline High Dose",81,71,"65-80",2,"WHITE",1,"M","Y","Y","Y","         Week 10",10,68,"2013-09-24",8.1,"WEEK 10 (T)","NPI-X Item I (Irritability/Lability) Score","NPITM09S",9,"",0,0,0,null,"","Y","","64 - 77",70,2,64,77,"DAYS",3155],["CDISCPILOT01","701","701","01-701-1028","2013-07-19","2014-01-14","Xanomeline High Dose",81,71,"65-80",2,"WHITE",1,"M","Y","Y","Y","         Week 12",12,83,"2013-10-09",9,"WEEK 12","NPI-X Item I (Irritability/Lability) Score","NPITM09S",9,"",0,0,0,null,"","Y","","78 - 91",84,1,78,91,"DAYS",3182],["CDISCPILOT01","701","701","01-701-1028","2013-07-19","2014-01-14","Xanomeline High Dose",81,71,"65-80",2,"WHITE",1,"M","Y","Y","Y","         Week 14",14,97,"2013-10-23",9.1,"WEEK 14 (T)","NPI-X Item I (Irritability/Lability) Score","NPITM09S",9,"",0,0,0,null,"","Y","","92 - 105",98,1,92,105,"DAYS",3209],["CDISCPILOT01","701","701","01-701-1028","2013-07-19","2014-01-14","Xanomeline High Dose",81,71,"65-80",2,"WHITE",1,"M","Y","Y","Y","         Week 16",16,111,"2013-11-06",10,"WEEK 16","NPI-X Item I (Irritability/Lability) Score","NPITM09S",9,"",0,0,0,null,"","Y","","106 - 119",112,1,106,119,"DAYS",3236],["CDISCPILOT01","701","701","01-701-1028","2013-07-19","2014-01-14","Xanomeline High Dose",81,71,"65-80",2,"WHITE",1,"M","Y","Y","Y","         Week 18",18,125,"2013-11-20",10.1,"WEEK 18 (T)","NPI-X Item I (Irritability/Lability) Score","NPITM09S",9,"",0,0,0,null,"","Y","","120 - 133",126,1,120,133,"DAYS",3263],["CDISCPILOT01","701","701","01-701-1028","2013-07-19","2014-01-14","Xanomeline High Dose",81,71,"65-80",2,"WHITE",1,"M","Y","Y","Y","         Week 20",20,139,"2013-12-04",11,"WEEK 20","NPI-X Item I (Irritability/Lability) Score","NPITM09S",9,"",0,0,0,null,"","Y","","134 - 147",140,1,134,147,"DAYS",3290],["CDISCPILOT01","701","701","01-701-1028","2013-07-19","2014-01-14","Xanomeline High Dose",81,71,"65-80",2,"WHITE",1,"M","Y","Y","Y","         Week 22",22,153,"2013-12-18",11.1,"WEEK 22 (T)","NPI-X Item I (Irritability/Lability) Score","NPITM09S",9,"",0,0,0,null,"","Y","","148 - 161",154,1,148,161,"DAYS",3317],["CDISCPILOT01","701","701","01-701-1028","2013-07-19","2014-01-14","Xanomeline High Dose",81,71,"65-80",2,"WHITE",1,"M","Y","Y","Y","         Week 24",24,172,"2014-01-06",12,"WEEK 24","NPI-X Item I (Irritability/Lability) Score","NPITM09S",9,"",0,0,0,null,"","Y","","162 - 175",168,4,162,175,"DAYS",3344],["CDISCPILOT01","701","701","01-701-1028","2013-07-19","2014-01-14","Xanomeline High Dose",81,71,"65-80",2,"WHITE",1,"M","Y","Y","Y","         Week 26",26,180,"2014-01-14",13,"WEEK 26","NPI-X Item I (Irritability/Lability) Score","NPITM09S",9,"",0,0,0,null,"","Y","",">175",182,2,176,null,"DAYS",3371],["CDISCPILOT01","701","701","01-701-1028","2013-07-19","2014-01-14","Xanomeline High Dose",81,71,"65-80",2,"WHITE",1,"M","Y","Y","Y","        Baseline",0,1,"2013-07-19",3,"BASELINE","NPI-X Item J (Aberrant Motor Behavior) Score","NPITM10S",10,"",0,0,0,null,"Y","Y","","<= 1",1,0,null,1,"DAYS",3020],["CDISCPILOT01","701","701","01-701-1028","2013-07-19","2014-01-14","Xanomeline High Dose",81,71,"65-80",2,"WHITE",1,"M","Y","Y","Y","          Week 2",2,14,"2013-08-01",4,"WEEK 2","NPI-X Item J (Aberrant Motor Behavior) Score","NPITM10S",10,"",0,0,0,null,"","Y","","2 - 21",14,0,2,21,"DAYS",3047],["CDISCPILOT01","701","701","01-701-1028","2013-07-19","2014-01-14","Xanomeline High Dose",81,71,"65-80",2,"WHITE",1,"M","Y","Y","Y","          Week 4",4,27,"2013-08-14",5,"WEEK 4","NPI-X Item J (Aberrant Motor Behavior) Score","NPITM10S",10,"",0,0,0,null,"","Y","","22 - 35",28,1,22,35,"DAYS",3074],["CDISCPILOT01","701","701","01-701-1028","2013-07-19","2014-01-14","Xanomeline High Dose",81,71,"65-80",2,"WHITE",1,"M","Y","Y","Y","          Week 6",6,42,"2013-08-29",7,"WEEK 6","NPI-X Item J (Aberrant Motor Behavior) Score","NPITM10S",10,"",0,0,0,null,"","Y","","36 - 49",42,0,36,49,"DAYS",3101],["CDISCPILOT01","701","701","01-701-1028","2013-07-19","2014-01-14","Xanomeline High Dose",81,71,"65-80",2,"WHITE",1,"M","Y","Y","Y","          Week 8",8,54,"2013-09-10",8,"WEEK 8","NPI-X Item J (Aberrant Motor Behavior) Score","NPITM10S",10,"",0,0,0,null,"","Y","","50 - 63",56,2,50,63,"DAYS",3130],["CDISCPILOT01","701","701","01-701-1028","2013-07-19","2014-01-14","Xanomeline High Dose",81,71,"65-80",2,"WHITE",1,"M","Y","Y","Y","         Week 10",10,68,"2013-09-24",8.1,"WEEK 10 (T)","NPI-X Item J (Aberrant Motor Behavior) Score","NPITM10S",10,"",0,0,0,null,"","Y","","64 - 77",70,2,64,77,"DAYS",3157],["CDISCPILOT01","701","701","01-701-1028","2013-07-19","2014-01-14","Xanomeline High Dose",81,71,"65-80",2,"WHITE",1,"M","Y","Y","Y","         Week 12",12,83,"2013-10-09",9,"WEEK 12","NPI-X Item J (Aberrant Motor Behavior) Score","NPITM10S",10,"",0,0,0,null,"","Y","","78 - 91",84,1,78,91,"DAYS",3184],["CDISCPILOT01","701","701","01-701-1028","2013-07-19","2014-01-14","Xanomeline High Dose",81,71,"65-80",2,"WHITE",1,"M","Y","Y","Y","         Week 14",14,97,"2013-10-23",9.1,"WEEK 14 (T)","NPI-X Item J (Aberrant Motor Behavior) Score","NPITM10S",10,"",0,0,0,null,"","Y","","92 - 105",98,1,92,105,"DAYS",3211],["CDISCPILOT01","701","701","01-701-1028","2013-07-19","2014-01-14","Xanomeline High Dose",81,71,"65-80",2,"WHITE",1,"M","Y","Y","Y","         Week 16",16,111,"2013-11-06",10,"WEEK 16","NPI-X Item J (Aberrant Motor Behavior) Score","NPITM10S",10,"",0,0,0,null,"","Y","","106 - 119",112,1,106,119,"DAYS",3238],["CDISCPILOT01","701","701","01-701-1028","2013-07-19","2014-01-14","Xanomeline High Dose",81,71,"65-80",2,"WHITE",1,"M","Y","Y","Y","         Week 18",18,125,"2013-11-20",10.1,"WEEK 18 (T)","NPI-X Item J (Aberrant Motor Behavior) Score","NPITM10S",10,"",0,0,0,null,"","Y","","120 - 133",126,1,120,133,"DAYS",3265],["CDISCPILOT01","701","701","01-701-1028","2013-07-19","2014-01-14","Xanomeline High Dose",81,71,"65-80",2,"WHITE",1,"M","Y","Y","Y","         Week 20",20,139,"2013-12-04",11,"WEEK 20","NPI-X Item J (Aberrant Motor Behavior) Score","NPITM10S",10,"",0,0,0,null,"","Y","","134 - 147",140,1,134,147,"DAYS",3292],["CDISCPILOT01","701","701","01-701-1028","2013-07-19","2014-01-14","Xanomeline High Dose",81,71,"65-80",2,"WHITE",1,"M","Y","Y","Y","         Week 22",22,153,"2013-12-18",11.1,"WEEK 22 (T)","NPI-X Item J (Aberrant Motor Behavior) Score","NPITM10S",10,"",0,0,0,null,"","Y","","148 - 161",154,1,148,161,"DAYS",3319],["CDISCPILOT01","701","701","01-701-1028","2013-07-19","2014-01-14","Xanomeline High Dose",81,71,"65-80",2,"WHITE",1,"M","Y","Y","Y","         Week 24",24,172,"2014-01-06",12,"WEEK 24","NPI-X Item J (Aberrant Motor Behavior) Score","NPITM10S",10,"",0,0,0,null,"","Y","","162 - 175",168,4,162,175,"DAYS",3346],["CDISCPILOT01","701","701","01-701-1028","2013-07-19","2014-01-14","Xanomeline High Dose",81,71,"65-80",2,"WHITE",1,"M","Y","Y","Y","         Week 26",26,180,"2014-01-14",13,"WEEK 26","NPI-X Item J (Aberrant Motor Behavior) Score","NPITM10S",10,"",0,0,0,null,"","Y","",">175",182,2,176,null,"DAYS",3373],["CDISCPILOT01","701","701","01-701-1028","2013-07-19","2014-01-14","Xanomeline High Dose",81,71,"65-80",2,"WHITE",1,"M","Y","Y","Y","        Baseline",0,1,"2013-07-19",3,"BASELINE","NPI-X Item K (Night-time Behavior) Score","NPITM11S",11,"",0,0,0,null,"Y","Y","","<= 1",1,0,null,1,"DAYS",3024],["CDISCPILOT01","701","701","01-701-1028","2013-07-19","2014-01-14","Xanomeline High Dose",81,71,"65-80",2,"WHITE",1,"M","Y","Y","Y","          Week 2",2,14,"2013-08-01",4,"WEEK 2","NPI-X Item K (Night-time Behavior) Score","NPITM11S",11,"",0,0,0,null,"","Y","","2 - 21",14,0,2,21,"DAYS",3051],["CDISCPILOT01","701","701","01-701-1028","2013-07-19","2014-01-14","Xanomeline High Dose",81,71,"65-80",2,"WHITE",1,"M","Y","Y","Y","          Week 4",4,27,"2013-08-14",5,"WEEK 4","NPI-X Item K (Night-time Behavior) Score","NPITM11S",11,"",0,0,0,null,"","Y","","22 - 35",28,1,22,35,"DAYS",3078],["CDISCPILOT01","701","701","01-701-1028","2013-07-19","2014-01-14","Xanomeline High Dose",81,71,"65-80",2,"WHITE",1,"M","Y","Y","Y","          Week 6",6,42,"2013-08-29",7,"WEEK 6","NPI-X Item K (Night-time Behavior) Score","NPITM11S",11,"",0,0,0,null,"","Y","","36 - 49",42,0,36,49,"DAYS",3105],["CDISCPILOT01","701","701","01-701-1028","2013-07-19","2014-01-14","Xanomeline High Dose",81,71,"65-80",2,"WHITE",1,"M","Y","Y","Y","          Week 8",8,54,"2013-09-10",8,"WEEK 8","NPI-X Item K (Night-time Behavior) Score","NPITM11S",11,"",0,0,0,null,"","Y","","50 - 63",56,2,50,63,"DAYS",3134],["CDISCPILOT01","701","701","01-701-1028","2013-07-19","2014-01-14","Xanomeline High Dose",81,71,"65-80",2,"WHITE",1,"M","Y","Y","Y","         Week 10",10,68,"2013-09-24",8.1,"WEEK 10 (T)","NPI-X Item K (Night-time Behavior) Score","NPITM11S",11,"",0,0,0,null,"","Y","","64 - 77",70,2,64,77,"DAYS",3161],["CDISCPILOT01","701","701","01-701-1028","2013-07-19","2014-01-14","Xanomeline High Dose",81,71,"65-80",2,"WHITE",1,"M","Y","Y","Y","         Week 12",12,83,"2013-10-09",9,"WEEK 12","NPI-X Item K (Night-time Behavior) Score","NPITM11S",11,"",0,0,0,null,"","Y","","78 - 91",84,1,78,91,"DAYS",3188],["CDISCPILOT01","701","701","01-701-1028","2013-07-19","2014-01-14","Xanomeline High Dose",81,71,"65-80",2,"WHITE",1,"M","Y","Y","Y","         Week 14",14,97,"2013-10-23",9.1,"WEEK 14 (T)","NPI-X Item K (Night-time Behavior) Score","NPITM11S",11,"",0,0,0,null,"","Y","","92 - 105",98,1,92,105,"DAYS",3215],["CDISCPILOT01","701","701","01-701-1028","2013-07-19","2014-01-14","Xanomeline High Dose",81,71,"65-80",2,"WHITE",1,"M","Y","Y","Y","         Week 16",16,111,"2013-11-06",10,"WEEK 16","NPI-X Item K (Night-time Behavior) Score","NPITM11S",11,"",0,0,0,null,"","Y","","106 - 119",112,1,106,119,"DAYS",3242],["CDISCPILOT01","701","701","01-701-1028","2013-07-19","2014-01-14","Xanomeline High Dose",81,71,"65-80",2,"WHITE",1,"M","Y","Y","Y","         Week 18",18,125,"2013-11-20",10.1,"WEEK 18 (T)","NPI-X Item K (Night-time Behavior) Score","NPITM11S",11,"",0,0,0,null,"","Y","","120 - 133",126,1,120,133,"DAYS",3269],["CDISCPILOT01","701","701","01-701-1028","2013-07-19","2014-01-14","Xanomeline High Dose",81,71,"65-80",2,"WHITE",1,"M","Y","Y","Y","         Week 20",20,139,"2013-12-04",11,"WEEK 20","NPI-X Item K (Night-time Behavior) Score","NPITM11S",11,"",0,0,0,null,"","Y","","134 - 147",140,1,134,147,"DAYS",3296],["CDISCPILOT01","701","701","01-701-1028","2013-07-19","2014-01-14","Xanomeline High Dose",81,71,"65-80",2,"WHITE",1,"M","Y","Y","Y","         Week 22",22,153,"2013-12-18",11.1,"WEEK 22 (T)","NPI-X Item K (Night-time Behavior) Score","NPITM11S",11,"",0,0,0,null,"","Y","","148 - 161",154,1,148,161,"DAYS",3323],["CDISCPILOT01","701","701","01-701-1028","2013-07-19","2014-01-14","Xanomeline High Dose",81,71,"65-80",2,"WHITE",1,"M","Y","Y","Y","         Week 24",24,172,"2014-01-06",12,"WEEK 24","NPI-X Item K (Night-time Behavior) Score","NPITM11S",11,"",0,0,0,null,"","Y","","162 - 175",168,4,162,175,"DAYS",3350],["CDISCPILOT01","701","701","01-701-1028","2013-07-19","2014-01-14","Xanomeline High Dose",81,71,"65-80",2,"WHITE",1,"M","Y","Y","Y","         Week 26",26,180,"2014-01-14",13,"WEEK 26","NPI-X Item K (Night-time Behavior) Score","NPITM11S",11,"",0,0,0,null,"","Y","",">175",182,2,176,null,"DAYS",3377],["CDISCPILOT01","701","701","01-701-1028","2013-07-19","2014-01-14","Xanomeline High Dose",81,71,"65-80",2,"WHITE",1,"M","Y","Y","Y","        Baseline",0,1,"2013-07-19",3,"BASELINE","NPI-X Item L (Appetite/Eating Change) Score","NPITM12S",12,"",0,0,0,null,"Y","Y","","<= 1",1,0,null,1,"DAYS",3026],["CDISCPILOT01","701","701","01-701-1028","2013-07-19","2014-01-14","Xanomeline High Dose",81,71,"65-80",2,"WHITE",1,"M","Y","Y","Y","          Week 2",2,14,"2013-08-01",4,"WEEK 2","NPI-X Item L (Appetite/Eating Change) Score","NPITM12S",12,"",0,0,0,null,"","Y","","2 - 21",14,0,2,21,"DAYS",3053],["CDISCPILOT01","701","701","01-701-1028","2013-07-19","2014-01-14","Xanomeline High Dose",81,71,"65-80",2,"WHITE",1,"M","Y","Y","Y","          Week 4",4,27,"2013-08-14",5,"WEEK 4","NPI-X Item L (Appetite/Eating Change) Score","NPITM12S",12,"",0,0,0,null,"","Y","","22 - 35",28,1,22,35,"DAYS",3080],["CDISCPILOT01","701","701","01-701-1028","2013-07-19","2014-01-14","Xanomeline High Dose",81,71,"65-80",2,"WHITE",1,"M","Y","Y","Y","          Week 6",6,42,"2013-08-29",7,"WEEK 6","NPI-X Item L (Appetite/Eating Change) Score","NPITM12S",12,"",0,0,0,null,"","Y","","36 - 49",42,0,36,49,"DAYS",3107],["CDISCPILOT01","701","701","01-701-1028","2013-07-19","2014-01-14","Xanomeline High Dose",81,71,"65-80",2,"WHITE",1,"M","Y","Y","Y","          Week 8",8,54,"2013-09-10",8,"WEEK 8","NPI-X Item L (Appetite/Eating Change) Score","NPITM12S",12,"",0,0,0,null,"","Y","","50 - 63",56,2,50,63,"DAYS",3136],["CDISCPILOT01","701","701","01-701-1028","2013-07-19","2014-01-14","Xanomeline High Dose",81,71,"65-80",2,"WHITE",1,"M","Y","Y","Y","         Week 10",10,68,"2013-09-24",8.1,"WEEK 10 (T)","NPI-X Item L (Appetite/Eating Change) Score","NPITM12S",12,"",0,0,0,null,"","Y","","64 - 77",70,2,64,77,"DAYS",3163],["CDISCPILOT01","701","701","01-701-1028","2013-07-19","2014-01-14","Xanomeline High Dose",81,71,"65-80",2,"WHITE",1,"M","Y","Y","Y","         Week 12",12,83,"2013-10-09",9,"WEEK 12","NPI-X Item L (Appetite/Eating Change) Score","NPITM12S",12,"",0,0,0,null,"","Y","","78 - 91",84,1,78,91,"DAYS",3190],["CDISCPILOT01","701","701","01-701-1028","2013-07-19","2014-01-14","Xanomeline High Dose",81,71,"65-80",2,"WHITE",1,"M","Y","Y","Y","         Week 14",14,97,"2013-10-23",9.1,"WEEK 14 (T)","NPI-X Item L (Appetite/Eating Change) Score","NPITM12S",12,"",0,0,0,null,"","Y","","92 - 105",98,1,92,105,"DAYS",3217],["CDISCPILOT01","701","701","01-701-1028","2013-07-19","2014-01-14","Xanomeline High Dose",81,71,"65-80",2,"WHITE",1,"M","Y","Y","Y","         Week 16",16,111,"2013-11-06",10,"WEEK 16","NPI-X Item L (Appetite/Eating Change) Score","NPITM12S",12,"",0,0,0,null,"","Y","","106 - 119",112,1,106,119,"DAYS",3244],["CDISCPILOT01","701","701","01-701-1028","2013-07-19","2014-01-14","Xanomeline High Dose",81,71,"65-80",2,"WHITE",1,"M","Y","Y","Y","         Week 18",18,125,"2013-11-20",10.1,"WEEK 18 (T)","NPI-X Item L (Appetite/Eating Change) Score","NPITM12S",12,"",0,0,0,null,"","Y","","120 - 133",126,1,120,133,"DAYS",3271],["CDISCPILOT01","701","701","01-701-1028","2013-07-19","2014-01-14","Xanomeline High Dose",81,71,"65-80",2,"WHITE",1,"M","Y","Y","Y","         Week 20",20,139,"2013-12-04",11,"WEEK 20","NPI-X Item L (Appetite/Eating Change) Score","NPITM12S",12,"",0,0,0,null,"","Y","","134 - 147",140,1,134,147,"DAYS",3298],["CDISCPILOT01","701","701","01-701-1028","2013-07-19","2014-01-14","Xanomeline High Dose",81,71,"65-80",2,"WHITE",1,"M","Y","Y","Y","         Week 22",22,153,"2013-12-18",11.1,"WEEK 22 (T)","NPI-X Item L (Appetite/Eating Change) Score","NPITM12S",12,"",0,0,0,null,"","Y","","148 - 161",154,1,148,161,"DAYS",3325],["CDISCPILOT01","701","701","01-701-1028","2013-07-19","2014-01-14","Xanomeline High Dose",81,71,"65-80",2,"WHITE",1,"M","Y","Y","Y","         Week 24",24,172,"2014-01-06",12,"WEEK 24","NPI-X Item L (Appetite/Eating Change) Score","NPITM12S",12,"",0,0,0,null,"","Y","","162 - 175",168,4,162,175,"DAYS",3352],["CDISCPILOT01","701","701","01-701-1028","2013-07-19","2014-01-14","Xanomeline High Dose",81,71,"65-80",2,"WHITE",1,"M","Y","Y","Y","         Week 26",26,180,"2014-01-14",13,"WEEK 26","NPI-X Item L (Appetite/Eating Change) Score","NPITM12S",12,"",0,0,0,null,"","Y","",">175",182,2,176,null,"DAYS",3379],["CDISCPILOT01","701","701","01-701-1028","2013-07-19","2014-01-14","Xanomeline High Dose",81,71,"65-80",2,"WHITE",1,"M","Y","Y","Y","        Baseline",0,1,"2013-07-19",3,"BASELINE","NPI-X (9) Total Score","NPTOT",13,"",0,0,0,null,"Y","Y","","<= 1",1,0,null,1,"DAYS",3027],["CDISCPILOT01","701","701","01-701-1028","2013-07-19","2014-01-14","Xanomeline High Dose",81,71,"65-80",2,"WHITE",1,"M","Y","Y","Y","          Week 2",2,14,"2013-08-01",4,"WEEK 2","NPI-X (9) Total Score","NPTOT",13,"",0,0,0,null,"","Y","","2 - 21",14,0,2,21,"DAYS",3054],["CDISCPILOT01","701","701","01-701-1028","2013-07-19","2014-01-14","Xanomeline High Dose",81,71,"65-80",2,"WHITE",1,"M","Y","Y","Y","          Week 4",4,27,"2013-08-14",5,"WEEK 4","NPI-X (9) Total Score","NPTOT",13,"",0,0,0,null,"","Y","","22 - 35",28,1,22,35,"DAYS",3081],["CDISCPILOT01","701","701","01-701-1028","2013-07-19","2014-01-14","Xanomeline High Dose",81,71,"65-80",2,"WHITE",1,"M","Y","Y","Y","          Week 6",6,42,"2013-08-29",7,"WEEK 6","NPI-X (9) Total Score","NPTOT",13,"",0,0,0,null,"","Y","","36 - 49",42,0,36,49,"DAYS",3108],["CDISCPILOT01","701","701","01-701-1028","2013-07-19","2014-01-14","Xanomeline High Dose",81,71,"65-80",2,"WHITE",1,"M","Y","Y","Y","          Week 8",8,54,"2013-09-10",8,"WEEK 8","NPI-X (9) Total Score","NPTOT",13,"",0,0,0,null,"","Y","","50 - 63",56,2,50,63,"DAYS",3137],["CDISCPILOT01","701","701","01-701-1028","2013-07-19","2014-01-14","Xanomeline High Dose",81,71,"65-80",2,"WHITE",1,"M","Y","Y","Y","         Week 10",10,68,"2013-09-24",8.1,"WEEK 10 (T)","NPI-X (9) Total Score","NPTOT",13,"",0,0,0,null,"","Y","","64 - 77",70,2,64,77,"DAYS",3164],["CDISCPILOT01","701","701","01-701-1028","2013-07-19","2014-01-14","Xanomeline High Dose",81,71,"65-80",2,"WHITE",1,"M","Y","Y","Y","         Week 12",12,83,"2013-10-09",9,"WEEK 12","NPI-X (9) Total Score","NPTOT",13,"",0,0,0,null,"","Y","","78 - 91",84,1,78,91,"DAYS",3191],["CDISCPILOT01","701","701","01-701-1028","2013-07-19","2014-01-14","Xanomeline High Dose",81,71,"65-80",2,"WHITE",1,"M","Y","Y","Y","         Week 14",14,97,"2013-10-23",9.1,"WEEK 14 (T)","NPI-X (9) Total Score","NPTOT",13,"",0,0,0,null,"","Y","","92 - 105",98,1,92,105,"DAYS",3218],["CDISCPILOT01","701","701","01-701-1028","2013-07-19","2014-01-14","Xanomeline High Dose",81,71,"65-80",2,"WHITE",1,"M","Y","Y","Y","         Week 16",16,111,"2013-11-06",10,"WEEK 16","NPI-X (9) Total Score","NPTOT",13,"",0,0,0,null,"","Y","","106 - 119",112,1,106,119,"DAYS",3245],["CDISCPILOT01","701","701","01-701-1028","2013-07-19","2014-01-14","Xanomeline High Dose",81,71,"65-80",2,"WHITE",1,"M","Y","Y","Y","         Week 18",18,125,"2013-11-20",10.1,"WEEK 18 (T)","NPI-X (9) Total Score","NPTOT",13,"",0,0,0,null,"","Y","","120 - 133",126,1,120,133,"DAYS",3272],["CDISCPILOT01","701","701","01-701-1028","2013-07-19","2014-01-14","Xanomeline High Dose",81,71,"65-80",2,"WHITE",1,"M","Y","Y","Y","         Week 20",20,139,"2013-12-04",11,"WEEK 20","NPI-X (9) Total Score","NPTOT",13,"",0,0,0,null,"","Y","","134 - 147",140,1,134,147,"DAYS",3299],["CDISCPILOT01","701","701","01-701-1028","2013-07-19","2014-01-14","Xanomeline High Dose",81,71,"65-80",2,"WHITE",1,"M","Y","Y","Y","         Week 22",22,153,"2013-12-18",11.1,"WEEK 22 (T)","NPI-X (9) Total Score","NPTOT",13,"",0,0,0,null,"","Y","","148 - 161",154,1,148,161,"DAYS",3326],["CDISCPILOT01","701","701","01-701-1028","2013-07-19","2014-01-14","Xanomeline High Dose",81,71,"65-80",2,"WHITE",1,"M","Y","Y","Y","         Week 24",24,172,"2014-01-06",12,"WEEK 24","NPI-X (9) Total Score","NPTOT",13,"",0,0,0,null,"","Y","","162 - 175",168,4,162,175,"DAYS",3353],["CDISCPILOT01","701","701","01-701-1028","2013-07-19","2014-01-14","Xanomeline High Dose",81,71,"65-80",2,"WHITE",1,"M","Y","Y","Y","         Week 26",26,180,"2014-01-14",13,"WEEK 26","NPI-X (9) Total Score","NPTOT",13,"",0,0,0,null,"","Y","",">175",182,2,176,null,"DAYS",3380],["CDISCPILOT01","701","701","01-701-1028","2013-07-19","2014-01-14","Xanomeline High Dose",81,71,"65-80",2,"WHITE",1,"M","Y","Y","Y","        Baseline",0,1,"2013-07-19",3,"BASELINE","Mean NPI-X (9) Total (Week 4 to 24)","NPTOTMN",14,"DERIVED",0,0,0,null,"Y","Y","AVERAGE","<= 1",1,0,null,1,"DAYS",3027],["CDISCPILOT01","701","701","01-701-1028","2013-07-19","2014-01-14","Xanomeline High Dose",81,71,"65-80",2,"WHITE",1,"M","Y","Y","Y","      Weeks 4-24",98,null,null,null,"","Mean NPI-X (9) Total (Week 4 to 24)","NPTOTMN",14,"DERIVED",0,0,null,null,"","Y","AVERAGE","22 - 175",98,0,22,175,"DAYS",null],["CDISCPILOT01","701","701","01-701-1033","2014-03-18","2014-03-31","Xanomeline Low Dose",54,74,"65-80",2,"WHITE",1,"M","Y","Y","N","        Baseline",0,1,"2014-03-18",3,"BASELINE","NPI-X Item A (Delusion) Score","NPITM01S",1,"",0,0,0,null,"Y","Y","","<= 1",1,0,null,1,"DAYS",3002],["CDISCPILOT01","701","701","01-701-1033","2014-03-18","2014-03-31","Xanomeline Low Dose",54,74,"65-80",2,"WHITE",1,"M","Y","Y","N","          Week 2",2,15,"2014-04-01",4,"WEEK 2","NPI-X Item A (Delusion) Score","NPITM01S",1,"",0,0,0,null,"","Y","","2 - 21",14,1,2,21,"DAYS",3029],["CDISCPILOT01","701","701","01-701-1033","2014-03-18","2014-03-31","Xanomeline Low Dose",54,74,"65-80",2,"WHITE",1,"M","Y","Y","N","          Week 4",4,28,"2014-04-14",5,"WEEK 4","NPI-X Item A (Delusion) Score","NPITM01S",1,"",0,0,0,null,"","Y","","22 - 35",28,0,22,35,"DAYS",3056],["CDISCPILOT01","701","701","01-701-1033","2014-03-18","2014-03-31","Xanomeline Low Dose",54,74,"65-80",2,"WHITE",1,"M","Y","Y","N","         Week 26",26,182,"2014-09-15",201,"RETRIEVAL","NPI-X Item A (Delusion) Score","NPITM01S",1,"",0,0,0,null,"","Y","",">175",182,0,176,null,"DAYS",3081],["CDISCPILOT01","701","701","01-701-1033","2014-03-18","2014-03-31","Xanomeline Low Dose",54,74,"65-80",2,"WHITE",1,"M","Y","Y","N","        Baseline",0,1,"2014-03-18",3,"BASELINE","NPI-X Item B (Hallucination)  Score","NPITM02S",2,"",0,0,0,null,"Y","Y","","<= 1",1,0,null,1,"DAYS",3004],["CDISCPILOT01","701","701","01-701-1033","2014-03-18","2014-03-31","Xanomeline Low Dose",54,74,"65-80",2,"WHITE",1,"M","Y","Y","N","          Week 2",2,15,"2014-04-01",4,"WEEK 2","NPI-X Item B (Hallucination)  Score","NPITM02S",2,"",0,0,0,null,"","Y","","2 - 21",14,1,2,21,"DAYS",3031],["CDISCPILOT01","701","701","01-701-1033","2014-03-18","2014-03-31","Xanomeline Low Dose",54,74,"65-80",2,"WHITE",1,"M","Y","Y","N","          Week 4",4,28,"2014-04-14",5,"WEEK 4","NPI-X Item B (Hallucination)  Score","NPITM02S",2,"",0,0,0,null,"","Y","","22 - 35",28,0,22,35,"DAYS",3058],["CDISCPILOT01","701","701","01-701-1033","2014-03-18","2014-03-31","Xanomeline Low Dose",54,74,"65-80",2,"WHITE",1,"M","Y","Y","N","         Week 26",26,182,"2014-09-15",201,"RETRIEVAL","NPI-X Item B (Hallucination)  Score","NPITM02S",2,"",0,0,0,null,"","Y","",">175",182,0,176,null,"DAYS",3083],["CDISCPILOT01","701","701","01-701-1033","2014-03-18","2014-03-31","Xanomeline Low Dose",54,74,"65-80",2,"WHITE",1,"M","Y","Y","N","        Baseline",0,1,"2014-03-18",3,"BASELINE","NPI-X Item C (Agitation/Agression) Score","NPITM03S",3,"",0,0,0,null,"Y","Y","","<= 1",1,0,null,1,"DAYS",3006],["CDISCPILOT01","701","701","01-701-1033","2014-03-18","2014-03-31","Xanomeline Low Dose",54,74,"65-80",2,"WHITE",1,"M","Y","Y","N","          Week 2",2,15,"2014-04-01",4,"WEEK 2","NPI-X Item C (Agitation/Agression) Score","NPITM03S",3,"",0,0,0,null,"","Y","","2 - 21",14,1,2,21,"DAYS",3033],["CDISCPILOT01","701","701","01-701-1033","2014-03-18","2014-03-31","Xanomeline Low Dose",54,74,"65-80",2,"WHITE",1,"M","Y","Y","N","          Week 4",4,28,"2014-04-14",5,"WEEK 4","NPI-X Item C (Agitation/Agression) Score","NPITM03S",3,"",0,0,0,null,"","Y","","22 - 35",28,0,22,35,"DAYS",3060],["CDISCPILOT01","701","701","01-701-1033","2014-03-18","2014-03-31","Xanomeline Low Dose",54,74,"65-80",2,"WHITE",1,"M","Y","Y","N","         Week 26",26,182,"2014-09-15",201,"RETRIEVAL","NPI-X Item C (Agitation/Agression) Score","NPITM03S",3,"",0,0,0,null,"","Y","",">175",182,0,176,null,"DAYS",3085],["CDISCPILOT01","701","701","01-701-1033","2014-03-18","2014-03-31","Xanomeline Low Dose",54,74,"65-80",2,"WHITE",1,"M","Y","Y","N","        Baseline",0,1,"2014-03-18",3,"BASELINE","NPI-X Item D (Depression/Dysphoria) Score","NPITM04S",4,"",1,1,0,0,"Y","Y","","<= 1",1,0,null,1,"DAYS",3010],["CDISCPILOT01","701","701","01-701-1033","2014-03-18","2014-03-31","Xanomeline Low Dose",54,74,"65-80",2,"WHITE",1,"M","Y","Y","N","          Week 2",2,15,"2014-04-01",4,"WEEK 2","NPI-X Item D (Depression/Dysphoria) Score","NPITM04S",4,"",0,1,-1,-100,"","Y","","2 - 21",14,1,2,21,"DAYS",3035],["CDISCPILOT01","701","701","01-701-1033","2014-03-18","2014-03-31","Xanomeline Low Dose",54,74,"65-80",2,"WHITE",1,"M","Y","Y","N","          Week 4",4,28,"2014-04-14",5,"WEEK 4","NPI-X Item D (Depression/Dysphoria) Score","NPITM04S",4,"",0,1,-1,-100,"","Y","","22 - 35",28,0,22,35,"DAYS",3062],["CDISCPILOT01","701","701","01-701-1033","2014-03-18","2014-03-31","Xanomeline Low Dose",54,74,"65-80",2,"WHITE",1,"M","Y","Y","N","         Week 26",26,182,"2014-09-15",201,"RETRIEVAL","NPI-X Item D (Depression/Dysphoria) Score","NPITM04S",4,"",0,1,-1,-100,"","Y","",">175",182,0,176,null,"DAYS",3087],["CDISCPILOT01","701","701","01-701-1033","2014-03-18","2014-03-31","Xanomeline Low Dose",54,74,"65-80",2,"WHITE",1,"M","Y","Y","N","        Baseline",0,1,"2014-03-18",3,"BASELINE","NPI-X Item E (Anxiety) Score","NPITM05S",5,"",0,0,0,null,"Y","Y","","<= 1",1,0,null,1,"DAYS",3012],["CDISCPILOT01","701","701","01-701-1033","2014-03-18","2014-03-31","Xanomeline Low Dose",54,74,"65-80",2,"WHITE",1,"M","Y","Y","N","          Week 2",2,15,"2014-04-01",4,"WEEK 2","NPI-X Item E (Anxiety) Score","NPITM05S",5,"",0,0,0,null,"","Y","","2 - 21",14,1,2,21,"DAYS",3037],["CDISCPILOT01","701","701","01-701-1033","2014-03-18","2014-03-31","Xanomeline Low Dose",54,74,"65-80",2,"WHITE",1,"M","Y","Y","N","          Week 4",4,28,"2014-04-14",5,"WEEK 4","NPI-X Item E (Anxiety) Score","NPITM05S",5,"",0,0,0,null,"","Y","","22 - 35",28,0,22,35,"DAYS",3064],["CDISCPILOT01","701","701","01-701-1033","2014-03-18","2014-03-31","Xanomeline Low Dose",54,74,"65-80",2,"WHITE",1,"M","Y","Y","N","         Week 26",26,182,"2014-09-15",201,"RETRIEVAL","NPI-X Item E (Anxiety) Score","NPITM05S",5,"",0,0,0,null,"","Y","",">175",182,0,176,null,"DAYS",3089],["CDISCPILOT01","701","701","01-701-1033","2014-03-18","2014-03-31","Xanomeline Low Dose",54,74,"65-80",2,"WHITE",1,"M","Y","Y","N","        Baseline",0,1,"2014-03-18",3,"BASELINE","NPI-X Item F (Eupohoria/Elation) Score","NPITM06S",6,"",0,0,0,null,"Y","Y","","<= 1",1,0,null,1,"DAYS",3014],["CDISCPILOT01","701","701","01-701-1033","2014-03-18","2014-03-31","Xanomeline Low Dose",54,74,"65-80",2,"WHITE",1,"M","Y","Y","N","          Week 2",2,15,"2014-04-01",4,"WEEK 2","NPI-X Item F (Eupohoria/Elation) Score","NPITM06S",6,"",0,0,0,null,"","Y","","2 - 21",14,1,2,21,"DAYS",3039],["CDISCPILOT01","701","701","01-701-1033","2014-03-18","2014-03-31","Xanomeline Low Dose",54,74,"65-80",2,"WHITE",1,"M","Y","Y","N","          Week 4",4,28,"2014-04-14",5,"WEEK 4","NPI-X Item F (Eupohoria/Elation) Score","NPITM06S",6,"",0,0,0,null,"","Y","","22 - 35",28,0,22,35,"DAYS",3066],["CDISCPILOT01","701","701","01-701-1033","2014-03-18","2014-03-31","Xanomeline Low Dose",54,74,"65-80",2,"WHITE",1,"M","Y","Y","N","         Week 26",26,182,"2014-09-15",201,"RETRIEVAL","NPI-X Item F (Eupohoria/Elation) Score","NPITM06S",6,"",0,0,0,null,"","Y","",">175",182,0,176,null,"DAYS",3091],["CDISCPILOT01","701","701","01-701-1033","2014-03-18","2014-03-31","Xanomeline Low Dose",54,74,"65-80",2,"WHITE",1,"M","Y","Y","N","        Baseline",0,1,"2014-03-18",3,"BASELINE","NPI-X Item G (Apathy/Indifference) Score","NPITM07S",7,"",0,0,0,null,"Y","Y","","<= 1",1,0,null,1,"DAYS",3016],["CDISCPILOT01","701","701","01-701-1033","2014-03-18","2014-03-31","Xanomeline Low Dose",54,74,"65-80",2,"WHITE",1,"M","Y","Y","N","          Week 2",2,15,"2014-04-01",4,"WEEK 2","NPI-X Item G (Apathy/Indifference) Score","NPITM07S",7,"",0,0,0,null,"","Y","","2 - 21",14,1,2,21,"DAYS",3041],["CDISCPILOT01","701","701","01-701-1033","2014-03-18","2014-03-31","Xanomeline Low Dose",54,74,"65-80",2,"WHITE",1,"M","Y","Y","N","          Week 4",4,28,"2014-04-14",5,"WEEK 4","NPI-X Item G (Apathy/Indifference) Score","NPITM07S",7,"",0,0,0,null,"","Y","","22 - 35",28,0,22,35,"DAYS",3068],["CDISCPILOT01","701","701","01-701-1033","2014-03-18","2014-03-31","Xanomeline Low Dose",54,74,"65-80",2,"WHITE",1,"M","Y","Y","N","         Week 26",26,182,"2014-09-15",201,"RETRIEVAL","NPI-X Item G (Apathy/Indifference) Score","NPITM07S",7,"",0,0,0,null,"","Y","",">175",182,0,176,null,"DAYS",3093],["CDISCPILOT01","701","701","01-701-1033","2014-03-18","2014-03-31","Xanomeline Low Dose",54,74,"65-80",2,"WHITE",1,"M","Y","Y","N","        Baseline",0,1,"2014-03-18",3,"BASELINE","NPI-X Item H (Disinhibition) Score","NPITM08S",8,"",0,0,0,null,"Y","Y","","<= 1",1,0,null,1,"DAYS",3018],["CDISCPILOT01","701","701","01-701-1033","2014-03-18","2014-03-31","Xanomeline Low Dose",54,74,"65-80",2,"WHITE",1,"M","Y","Y","N","          Week 2",2,15,"2014-04-01",4,"WEEK 2","NPI-X Item H (Disinhibition) Score","NPITM08S",8,"",0,0,0,null,"","Y","","2 - 21",14,1,2,21,"DAYS",3043],["CDISCPILOT01","701","701","01-701-1033","2014-03-18","2014-03-31","Xanomeline Low Dose",54,74,"65-80",2,"WHITE",1,"M","Y","Y","N","          Week 4",4,28,"2014-04-14",5,"WEEK 4","NPI-X Item H (Disinhibition) Score","NPITM08S",8,"",0,0,0,null,"","Y","","22 - 35",28,0,22,35,"DAYS",3070],["CDISCPILOT01","701","701","01-701-1033","2014-03-18","2014-03-31","Xanomeline Low Dose",54,74,"65-80",2,"WHITE",1,"M","Y","Y","N","         Week 26",26,182,"2014-09-15",201,"RETRIEVAL","NPI-X Item H (Disinhibition) Score","NPITM08S",8,"",0,0,0,null,"","Y","",">175",182,0,176,null,"DAYS",3095],["CDISCPILOT01","701","701","01-701-1033","2014-03-18","2014-03-31","Xanomeline Low Dose",54,74,"65-80",2,"WHITE",1,"M","Y","Y","N","        Baseline",0,1,"2014-03-18",3,"BASELINE","NPI-X Item I (Irritability/Lability) Score","NPITM09S",9,"",0,0,0,null,"Y","Y","","<= 1",1,0,null,1,"DAYS",3020],["CDISCPILOT01","701","701","01-701-1033","2014-03-18","2014-03-31","Xanomeline Low Dose",54,74,"65-80",2,"WHITE",1,"M","Y","Y","N","          Week 2",2,15,"2014-04-01",4,"WEEK 2","NPI-X Item I (Irritability/Lability) Score","NPITM09S",9,"",1,0,1,null,"","Y","","2 - 21",14,1,2,21,"DAYS",3047],["CDISCPILOT01","701","701","01-701-1033","2014-03-18","2014-03-31","Xanomeline Low Dose",54,74,"65-80",2,"WHITE",1,"M","Y","Y","N","          Week 4",4,28,"2014-04-14",5,"WEEK 4","NPI-X Item I (Irritability/Lability) Score","NPITM09S",9,"",0,0,0,null,"","Y","","22 - 35",28,0,22,35,"DAYS",3072],["CDISCPILOT01","701","701","01-701-1033","2014-03-18","2014-03-31","Xanomeline Low Dose",54,74,"65-80",2,"WHITE",1,"M","Y","Y","N","         Week 26",26,182,"2014-09-15",201,"RETRIEVAL","NPI-X Item I (Irritability/Lability) Score","NPITM09S",9,"",0,0,0,null,"","Y","",">175",182,0,176,null,"DAYS",3097],["CDISCPILOT01","701","701","01-701-1033","2014-03-18","2014-03-31","Xanomeline Low Dose",54,74,"65-80",2,"WHITE",1,"M","Y","Y","N","        Baseline",0,1,"2014-03-18",3,"BASELINE","NPI-X Item J (Aberrant Motor Behavior) Score","NPITM10S",10,"",0,0,0,null,"Y","Y","","<= 1",1,0,null,1,"DAYS",3022],["CDISCPILOT01","701","701","01-701-1033","2014-03-18","2014-03-31","Xanomeline Low Dose",54,74,"65-80",2,"WHITE",1,"M","Y","Y","N","          Week 2",2,15,"2014-04-01",4,"WEEK 2","NPI-X Item J (Aberrant Motor Behavior) Score","NPITM10S",10,"",0,0,0,null,"","Y","","2 - 21",14,1,2,21,"DAYS",3049],["CDISCPILOT01","701","701","01-701-1033","2014-03-18","2014-03-31","Xanomeline Low Dose",54,74,"65-80",2,"WHITE",1,"M","Y","Y","N","          Week 4",4,28,"2014-04-14",5,"WEEK 4","NPI-X Item J (Aberrant Motor Behavior) Score","NPITM10S",10,"",0,0,0,null,"","Y","","22 - 35",28,0,22,35,"DAYS",3074],["CDISCPILOT01","701","701","01-701-1033","2014-03-18","2014-03-31","Xanomeline Low Dose",54,74,"65-80",2,"WHITE",1,"M","Y","Y","N","         Week 26",26,182,"2014-09-15",201,"RETRIEVAL","NPI-X Item J (Aberrant Motor Behavior) Score","NPITM10S",10,"",0,0,0,null,"","Y","",">175",182,0,176,null,"DAYS",3099],["CDISCPILOT01","701","701","01-701-1033","2014-03-18","2014-03-31","Xanomeline Low Dose",54,74,"65-80",2,"WHITE",1,"M","Y","Y","N","        Baseline",0,1,"2014-03-18",3,"BASELINE","NPI-X Item K (Night-time Behavior) Score","NPITM11S",11,"",0,0,0,null,"Y","Y","","<= 1",1,0,null,1,"DAYS",3024],["CDISCPILOT01","701","701","01-701-1033","2014-03-18","2014-03-31","Xanomeline Low Dose",54,74,"65-80",2,"WHITE",1,"M","Y","Y","N","          Week 2",2,15,"2014-04-01",4,"WEEK 2","NPI-X Item K (Night-time Behavior) Score","NPITM11S",11,"",0,0,0,null,"","Y","","2 - 21",14,1,2,21,"DAYS",3051],["CDISCPILOT01","701","701","01-701-1033","2014-03-18","2014-03-31","Xanomeline Low Dose",54,74,"65-80",2,"WHITE",1,"M","Y","Y","N","          Week 4",4,28,"2014-04-14",5,"WEEK 4","NPI-X Item K (Night-time Behavior) Score","NPITM11S",11,"",0,0,0,null,"","Y","","22 - 35",28,0,22,35,"DAYS",3076],["CDISCPILOT01","701","701","01-701-1033","2014-03-18","2014-03-31","Xanomeline Low Dose",54,74,"65-80",2,"WHITE",1,"M","Y","Y","N","         Week 26",26,182,"2014-09-15",201,"RETRIEVAL","NPI-X Item K (Night-time Behavior) Score","NPITM11S",11,"",0,0,0,null,"","Y","",">175",182,0,176,null,"DAYS",3101],["CDISCPILOT01","701","701","01-701-1033","2014-03-18","2014-03-31","Xanomeline Low Dose",54,74,"65-80",2,"WHITE",1,"M","Y","Y","N","        Baseline",0,1,"2014-03-18",3,"BASELINE","NPI-X Item L (Appetite/Eating Change) Score","NPITM12S",12,"",0,0,0,null,"Y","Y","","<= 1",1,0,null,1,"DAYS",3026],["CDISCPILOT01","701","701","01-701-1033","2014-03-18","2014-03-31","Xanomeline Low Dose",54,74,"65-80",2,"WHITE",1,"M","Y","Y","N","          Week 2",2,15,"2014-04-01",4,"WEEK 2","NPI-X Item L (Appetite/Eating Change) Score","NPITM12S",12,"",0,0,0,null,"","Y","","2 - 21",14,1,2,21,"DAYS",3053],["CDISCPILOT01","701","701","01-701-1033","2014-03-18","2014-03-31","Xanomeline Low Dose",54,74,"65-80",2,"WHITE",1,"M","Y","Y","N","          Week 4",4,28,"2014-04-14",5,"WEEK 4","NPI-X Item L (Appetite/Eating Change) Score","NPITM12S",12,"",0,0,0,null,"","Y","","22 - 35",28,0,22,35,"DAYS",3078],["CDISCPILOT01","701","701","01-701-1033","2014-03-18","2014-03-31","Xanomeline Low Dose",54,74,"65-80",2,"WHITE",1,"M","Y","Y","N","         Week 26",26,182,"2014-09-15",201,"RETRIEVAL","NPI-X Item L (Appetite/Eating Change) Score","NPITM12S",12,"",0,0,0,null,"","Y","",">175",182,0,176,null,"DAYS",3103],["CDISCPILOT01","701","701","01-701-1033","2014-03-18","2014-03-31","Xanomeline Low Dose",54,74,"65-80",2,"WHITE",1,"M","Y","Y","N","        Baseline",0,1,"2014-03-18",3,"BASELINE","NPI-X (9) Total Score","NPTOT",13,"",1,1,0,0,"Y","Y","","<= 1",1,0,null,1,"DAYS",3027],["CDISCPILOT01","701","701","01-701-1033","2014-03-18","2014-03-31","Xanomeline Low Dose",54,74,"65-80",2,"WHITE",1,"M","Y","Y","N","          Week 2",2,15,"2014-04-01",4,"WEEK 2","NPI-X (9) Total Score","NPTOT",13,"",1,1,0,0,"","Y","","2 - 21",14,1,2,21,"DAYS",3054],["CDISCPILOT01","701","701","01-701-1033","2014-03-18","2014-03-31","Xanomeline Low Dose",54,74,"65-80",2,"WHITE",1,"M","Y","Y","N","          Week 4",4,28,"2014-04-14",5,"WEEK 4","NPI-X (9) Total Score","NPTOT",13,"",0,1,-1,-100,"","Y","","22 - 35",28,0,22,35,"DAYS",3079],["CDISCPILOT01","701","701","01-701-1033","2014-03-18","2014-03-31","Xanomeline Low Dose",54,74,"65-80",2,"WHITE",1,"M","Y","Y","N","         Week 26",26,182,"2014-09-15",201,"RETRIEVAL","NPI-X (9) Total Score","NPTOT",13,"",0,1,-1,-100,"","Y","",">175",182,0,176,null,"DAYS",3104],["CDISCPILOT01","701","701","01-701-1033","2014-03-18","2014-03-31","Xanomeline Low Dose",54,74,"65-80",2,"WHITE",1,"M","Y","Y","N","        Baseline",0,1,"2014-03-18",3,"BASELINE","Mean NPI-X (9) Total (Week 4 to 24)","NPTOTMN",14,"DERIVED",1,1,0,0,"Y","Y","AVERAGE","<= 1",1,0,null,1,"DAYS",3027],["CDISCPILOT01","701","701","01-701-1034","2014-07-01","2014-12-30","Xanomeline High Dose",81,77,"65-80",2,"WHITE",1,"F","Y","Y","Y","        Baseline",0,1,"2014-07-01",3,"BASELINE","NPI-X Item A (Delusion) Score","NPITM01S",1,"",0,0,0,null,"Y","Y","","<= 1",1,0,null,1,"DAYS",3002],["CDISCPILOT01","701","701","01-701-1034","2014-07-01","2014-12-30","Xanomeline High Dose",81,77,"65-80",2,"WHITE",1,"F","Y","Y","Y","          Week 2",2,15,"2014-07-15",4,"WEEK 2","NPI-X Item A (Delusion) Score","NPITM01S",1,"",0,0,0,null,"","Y","","2 - 21",14,1,2,21,"DAYS",3027],["CDISCPILOT01","701","701","01-701-1034","2014-07-01","2014-12-30","Xanomeline High Dose",81,77,"65-80",2,"WHITE",1,"F","Y","Y","Y","          Week 4",4,29,"2014-07-29",5,"WEEK 4","NPI-X Item A (Delusion) Score","NPITM01S",1,"",0,0,0,null,"","Y","","22 - 35",28,1,22,35,"DAYS",3052],["CDISCPILOT01","701","701","01-701-1034","2014-07-01","2014-12-30","Xanomeline High Dose",81,77,"65-80",2,"WHITE",1,"F","Y","Y","Y","          Week 6",6,42,"2014-08-11",7,"WEEK 6","NPI-X Item A (Delusion) Score","NPITM01S",1,"",0,0,0,null,"","Y","","36 - 49",42,0,36,49,"DAYS",3083],["CDISCPILOT01","701","701","01-701-1034","2014-07-01","2014-12-30","Xanomeline High Dose",81,77,"65-80",2,"WHITE",1,"F","Y","Y","Y","          Week 8",8,57,"2014-08-26",8,"WEEK 8","NPI-X Item A (Delusion) Score","NPITM01S",1,"",0,0,0,null,"","Y","","50 - 63",56,1,50,63,"DAYS",3114],["CDISCPILOT01","701","701","01-701-1034","2014-07-01","2014-12-30","Xanomeline High Dose",81,77,"65-80",2,"WHITE",1,"F","Y","Y","Y","         Week 10",10,71,"2014-09-09",8.1,"WEEK 10 (T)","NPI-X Item A (Delusion) Score","NPITM01S",1,"",1,0,1,null,"","Y","","64 - 77",70,1,64,77,"DAYS",3141],["CDISCPILOT01","701","701","01-701-1034","2014-07-01","2014-12-30","Xanomeline High Dose",81,77,"65-80",2,"WHITE",1,"F","Y","Y","Y","         Week 12",12,87,"2014-09-25",9,"WEEK 12","NPI-X Item A (Delusion) Score","NPITM01S",1,"",0,0,0,null,"","Y","","78 - 91",84,3,78,91,"DAYS",3166],["CDISCPILOT01","701","701","01-701-1034","2014-07-01","2014-12-30","Xanomeline High Dose",81,77,"65-80",2,"WHITE",1,"F","Y","Y","Y","         Week 14",14,99,"2014-10-07",9.1,"WEEK 14 (T)","NPI-X Item A (Delusion) Score","NPITM01S",1,"",0,0,0,null,"","Y","","92 - 105",98,1,92,105,"DAYS",3191],["CDISCPILOT01","701","701","01-701-1034","2014-07-01","2014-12-30","Xanomeline High Dose",81,77,"65-80",2,"WHITE",1,"F","Y","Y","Y","         Week 16",16,113,"2014-10-21",10,"WEEK 16","NPI-X Item A (Delusion) Score","NPITM01S",1,"",0,0,0,null,"","Y","","106 - 119",112,1,106,119,"DAYS",3216],["CDISCPILOT01","701","701","01-701-1034","2014-07-01","2014-12-30","Xanomeline High Dose",81,77,"65-80",2,"WHITE",1,"F","Y","Y","Y","         Week 18",18,127,"2014-11-04",10.1,"WEEK 18 (T)","NPI-X Item A (Delusion) Score","NPITM01S",1,"",0,0,0,null,"","Y","","120 - 133",126,1,120,133,"DAYS",3241],["CDISCPILOT01","701","701","01-701-1034","2014-07-01","2014-12-30","Xanomeline High Dose",81,77,"65-80",2,"WHITE",1,"F","Y","Y","Y","         Week 20",20,141,"2014-11-18",11,"WEEK 20","NPI-X Item A (Delusion) Score","NPITM01S",1,"",0,0,0,null,"","Y","","134 - 147",140,1,134,147,"DAYS",3272],["CDISCPILOT01","701","701","01-701-1034","2014-07-01","2014-12-30","Xanomeline High Dose",81,77,"65-80",2,"WHITE",1,"F","Y","Y","Y","         Week 22",22,155,"2014-12-02",11.1,"WEEK 22 (T)","NPI-X Item A (Delusion) Score","NPITM01S",1,"",0,0,0,null,"","Y","","148 - 161",154,1,148,161,"DAYS",3299],["CDISCPILOT01","701","701","01-701-1034","2014-07-01","2014-12-30","Xanomeline High Dose",81,77,"65-80",2,"WHITE",1,"F","Y","Y","Y","         Week 24",24,170,"2014-12-17",12,"WEEK 24","NPI-X Item A (Delusion) Score","NPITM01S",1,"",0,0,0,null,"","Y","","162 - 175",168,2,162,175,"DAYS",3324],["CDISCPILOT01","701","701","01-701-1034","2014-07-01","2014-12-30","Xanomeline High Dose",81,77,"65-80",2,"WHITE",1,"F","Y","Y","Y","         Week 26",26,183,"2014-12-30",13,"WEEK 26","NPI-X Item A (Delusion) Score","NPITM01S",1,"",0,0,0,null,"","Y","",">175",182,1,176,null,"DAYS",3351],["CDISCPILOT01","701","701","01-701-1034","2014-07-01","2014-12-30","Xanomeline High Dose",81,77,"65-80",2,"WHITE",1,"F","Y","Y","Y","        Baseline",0,1,"2014-07-01",3,"BASELINE","NPI-X Item B (Hallucination)  Score","NPITM02S",2,"",0,0,0,null,"Y","Y","","<= 1",1,0,null,1,"DAYS",3004],["CDISCPILOT01","701","701","01-701-1034","2014-07-01","2014-12-30","Xanomeline High Dose",81,77,"65-80",2,"WHITE",1,"F","Y","Y","Y","          Week 2",2,15,"2014-07-15",4,"WEEK 2","NPI-X Item B (Hallucination)  Score","NPITM02S",2,"",0,0,0,null,"","Y","","2 - 21",14,1,2,21,"DAYS",3029],["CDISCPILOT01","701","701","01-701-1034","2014-07-01","2014-12-30","Xanomeline High Dose",81,77,"65-80",2,"WHITE",1,"F","Y","Y","Y","          Week 4",4,29,"2014-07-29",5,"WEEK 4","NPI-X Item B (Hallucination)  Score","NPITM02S",2,"",0,0,0,null,"","Y","","22 - 35",28,1,22,35,"DAYS",3054],["CDISCPILOT01","701","701","01-701-1034","2014-07-01","2014-12-30","Xanomeline High Dose",81,77,"65-80",2,"WHITE",1,"F","Y","Y","Y","          Week 6",6,42,"2014-08-11",7,"WEEK 6","NPI-X Item B (Hallucination)  Score","NPITM02S",2,"",0,0,0,null,"","Y","","36 - 49",42,0,36,49,"DAYS",3085],["CDISCPILOT01","701","701","01-701-1034","2014-07-01","2014-12-30","Xanomeline High Dose",81,77,"65-80",2,"WHITE",1,"F","Y","Y","Y","          Week 8",8,57,"2014-08-26",8,"WEEK 8","NPI-X Item B (Hallucination)  Score","NPITM02S",2,"",0,0,0,null,"","Y","","50 - 63",56,1,50,63,"DAYS",3116],["CDISCPILOT01","701","701","01-701-1034","2014-07-01","2014-12-30","Xanomeline High Dose",81,77,"65-80",2,"WHITE",1,"F","Y","Y","Y","         Week 10",10,71,"2014-09-09",8.1,"WEEK 10 (T)","NPI-X Item B (Hallucination)  Score","NPITM02S",2,"",0,0,0,null,"","Y","","64 - 77",70,1,64,77,"DAYS",3143],["CDISCPILOT01","701","701","01-701-1034","2014-07-01","2014-12-30","Xanomeline High Dose",81,77,"65-80",2,"WHITE",1,"F","Y","Y","Y","         Week 12",12,87,"2014-09-25",9,"WEEK 12","NPI-X Item B (Hallucination)  Score","NPITM02S",2,"",0,0,0,null,"","Y","","78 - 91",84,3,78,91,"DAYS",3168],["CDISCPILOT01","701","701","01-701-1034","2014-07-01","2014-12-30","Xanomeline High Dose",81,77,"65-80",2,"WHITE",1,"F","Y","Y","Y","         Week 14",14,99,"2014-10-07",9.1,"WEEK 14 (T)","NPI-X Item B (Hallucination)  Score","NPITM02S",2,"",0,0,0,null,"","Y","","92 - 105",98,1,92,105,"DAYS",3193],["CDISCPILOT01","701","701","01-701-1034","2014-07-01","2014-12-30","Xanomeline High Dose",81,77,"65-80",2,"WHITE",1,"F","Y","Y","Y","         Week 16",16,113,"2014-10-21",10,"WEEK 16","NPI-X Item B (Hallucination)  Score","NPITM02S",2,"",0,0,0,null,"","Y","","106 - 119",112,1,106,119,"DAYS",3218],["CDISCPILOT01","701","701","01-701-1034","2014-07-01","2014-12-30","Xanomeline High Dose",81,77,"65-80",2,"WHITE",1,"F","Y","Y","Y","         Week 18",18,127,"2014-11-04",10.1,"WEEK 18 (T)","NPI-X Item B (Hallucination)  Score","NPITM02S",2,"",0,0,0,null,"","Y","","120 - 133",126,1,120,133,"DAYS",3243],["CDISCPILOT01","701","701","01-701-1034","2014-07-01","2014-12-30","Xanomeline High Dose",81,77,"65-80",2,"WHITE",1,"F","Y","Y","Y","         Week 20",20,141,"2014-11-18",11,"WEEK 20","NPI-X Item B (Hallucination)  Score","NPITM02S",2,"",0,0,0,null,"","Y","","134 - 147",140,1,134,147,"DAYS",3274],["CDISCPILOT01","701","701","01-701-1034","2014-07-01","2014-12-30","Xanomeline High Dose",81,77,"65-80",2,"WHITE",1,"F","Y","Y","Y","         Week 22",22,155,"2014-12-02",11.1,"WEEK 22 (T)","NPI-X Item B (Hallucination)  Score","NPITM02S",2,"",0,0,0,null,"","Y","","148 - 161",154,1,148,161,"DAYS",3301],["CDISCPILOT01","701","701","01-701-1034","2014-07-01","2014-12-30","Xanomeline High Dose",81,77,"65-80",2,"WHITE",1,"F","Y","Y","Y","         Week 24",24,170,"2014-12-17",12,"WEEK 24","NPI-X Item B (Hallucination)  Score","NPITM02S",2,"",0,0,0,null,"","Y","","162 - 175",168,2,162,175,"DAYS",3326],["CDISCPILOT01","701","701","01-701-1034","2014-07-01","2014-12-30","Xanomeline High Dose",81,77,"65-80",2,"WHITE",1,"F","Y","Y","Y","         Week 26",26,183,"2014-12-30",13,"WEEK 26","NPI-X Item B (Hallucination)  Score","NPITM02S",2,"",0,0,0,null,"","Y","",">175",182,1,176,null,"DAYS",3353],["CDISCPILOT01","701","701","01-701-1034","2014-07-01","2014-12-30","Xanomeline High Dose",81,77,"65-80",2,"WHITE",1,"F","Y","Y","Y","        Baseline",0,1,"2014-07-01",3,"BASELINE","NPI-X Item C (Agitation/Agression) Score","NPITM03S",3,"",0,0,0,null,"Y","Y","","<= 1",1,0,null,1,"DAYS",3006],["CDISCPILOT01","701","701","01-701-1034","2014-07-01","2014-12-30","Xanomeline High Dose",81,77,"65-80",2,"WHITE",1,"F","Y","Y","Y","          Week 2",2,15,"2014-07-15",4,"WEEK 2","NPI-X Item C (Agitation/Agression) Score","NPITM03S",3,"",0,0,0,null,"","Y","","2 - 21",14,1,2,21,"DAYS",3031],["CDISCPILOT01","701","701","01-701-1034","2014-07-01","2014-12-30","Xanomeline High Dose",81,77,"65-80",2,"WHITE",1,"F","Y","Y","Y","          Week 4",4,29,"2014-07-29",5,"WEEK 4","NPI-X Item C (Agitation/Agression) Score","NPITM03S",3,"",0,0,0,null,"","Y","","22 - 35",28,1,22,35,"DAYS",3056],["CDISCPILOT01","701","701","01-701-1034","2014-07-01","2014-12-30","Xanomeline High Dose",81,77,"65-80",2,"WHITE",1,"F","Y","Y","Y","          Week 6",6,42,"2014-08-11",7,"WEEK 6","NPI-X Item C (Agitation/Agression) Score","NPITM03S",3,"",1,0,1,null,"","Y","","36 - 49",42,0,36,49,"DAYS",3089],["CDISCPILOT01","701","701","01-701-1034","2014-07-01","2014-12-30","Xanomeline High Dose",81,77,"65-80",2,"WHITE",1,"F","Y","Y","Y","          Week 8",8,57,"2014-08-26",8,"WEEK 8","NPI-X Item C (Agitation/Agression) Score","NPITM03S",3,"",0,0,0,null,"","Y","","50 - 63",56,1,50,63,"DAYS",3118],["CDISCPILOT01","701","701","01-701-1034","2014-07-01","2014-12-30","Xanomeline High Dose",81,77,"65-80",2,"WHITE",1,"F","Y","Y","Y","         Week 10",10,71,"2014-09-09",8.1,"WEEK 10 (T)","NPI-X Item C (Agitation/Agression) Score","NPITM03S",3,"",0,0,0,null,"","Y","","64 - 77",70,1,64,77,"DAYS",3145],["CDISCPILOT01","701","701","01-701-1034","2014-07-01","2014-12-30","Xanomeline High Dose",81,77,"65-80",2,"WHITE",1,"F","Y","Y","Y","         Week 12",12,87,"2014-09-25",9,"WEEK 12","NPI-X Item C (Agitation/Agression) Score","NPITM03S",3,"",0,0,0,null,"","Y","","78 - 91",84,3,78,91,"DAYS",3170],["CDISCPILOT01","701","701","01-701-1034","2014-07-01","2014-12-30","Xanomeline High Dose",81,77,"65-80",2,"WHITE",1,"F","Y","Y","Y","         Week 14",14,99,"2014-10-07",9.1,"WEEK 14 (T)","NPI-X Item C (Agitation/Agression) Score","NPITM03S",3,"",0,0,0,null,"","Y","","92 - 105",98,1,92,105,"DAYS",3195],["CDISCPILOT01","701","701","01-701-1034","2014-07-01","2014-12-30","Xanomeline High Dose",81,77,"65-80",2,"WHITE",1,"F","Y","Y","Y","         Week 16",16,113,"2014-10-21",10,"WEEK 16","NPI-X Item C (Agitation/Agression) Score","NPITM03S",3,"",0,0,0,null,"","Y","","106 - 119",112,1,106,119,"DAYS",3220],["CDISCPILOT01","701","701","01-701-1034","2014-07-01","2014-12-30","Xanomeline High Dose",81,77,"65-80",2,"WHITE",1,"F","Y","Y","Y","         Week 18",18,127,"2014-11-04",10.1,"WEEK 18 (T)","NPI-X Item C (Agitation/Agression) Score","NPITM03S",3,"",3,0,3,null,"","Y","","120 - 133",126,1,120,133,"DAYS",3247],["CDISCPILOT01","701","701","01-701-1034","2014-07-01","2014-12-30","Xanomeline High Dose",81,77,"65-80",2,"WHITE",1,"F","Y","Y","Y","         Week 20",20,141,"2014-11-18",11,"WEEK 20","NPI-X Item C (Agitation/Agression) Score","NPITM03S",3,"",0,0,0,null,"","Y","","134 - 147",140,1,134,147,"DAYS",3276],["CDISCPILOT01","701","701","01-701-1034","2014-07-01","2014-12-30","Xanomeline High Dose",81,77,"65-80",2,"WHITE",1,"F","Y","Y","Y","         Week 22",22,155,"2014-12-02",11.1,"WEEK 22 (T)","NPI-X Item C (Agitation/Agression) Score","NPITM03S",3,"",0,0,0,null,"","Y","","148 - 161",154,1,148,161,"DAYS",3303],["CDISCPILOT01","701","701","01-701-1034","2014-07-01","2014-12-30","Xanomeline High Dose",81,77,"65-80",2,"WHITE",1,"F","Y","Y","Y","         Week 24",24,170,"2014-12-17",12,"WEEK 24","NPI-X Item C (Agitation/Agression) Score","NPITM03S",3,"",1,0,1,null,"","Y","","162 - 175",168,2,162,175,"DAYS",3330],["CDISCPILOT01","701","701","01-701-1034","2014-07-01","2014-12-30","Xanomeline High Dose",81,77,"65-80",2,"WHITE",1,"F","Y","Y","Y","         Week 26",26,183,"2014-12-30",13,"WEEK 26","NPI-X Item C (Agitation/Agression) Score","NPITM03S",3,"",0,0,0,null,"","Y","",">175",182,1,176,null,"DAYS",3355],["CDISCPILOT01","701","701","01-701-1034","2014-07-01","2014-12-30","Xanomeline High Dose",81,77,"65-80",2,"WHITE",1,"F","Y","Y","Y","        Baseline",0,1,"2014-07-01",3,"BASELINE","NPI-X Item D (Depression/Dysphoria) Score","NPITM04S",4,"",0,0,0,null,"Y","Y","","<= 1",1,0,null,1,"DAYS",3008],["CDISCPILOT01","701","701","01-701-1034","2014-07-01","2014-12-30","Xanomeline High Dose",81,77,"65-80",2,"WHITE",1,"F","Y","Y","Y","          Week 2",2,15,"2014-07-15",4,"WEEK 2","NPI-X Item D (Depression/Dysphoria) Score","NPITM04S",4,"",0,0,0,null,"","Y","","2 - 21",14,1,2,21,"DAYS",3033],["CDISCPILOT01","701","701","01-701-1034","2014-07-01","2014-12-30","Xanomeline High Dose",81,77,"65-80",2,"WHITE",1,"F","Y","Y","Y","          Week 4",4,29,"2014-07-29",5,"WEEK 4","NPI-X Item D (Depression/Dysphoria) Score","NPITM04S",4,"",0,0,0,null,"","Y","","22 - 35",28,1,22,35,"DAYS",3058],["CDISCPILOT01","701","701","01-701-1034","2014-07-01","2014-12-30","Xanomeline High Dose",81,77,"65-80",2,"WHITE",1,"F","Y","Y","Y","          Week 6",6,42,"2014-08-11",7,"WEEK 6","NPI-X Item D (Depression/Dysphoria) Score","NPITM04S",4,"",0,0,0,null,"","Y","","36 - 49",42,0,36,49,"DAYS",3091],["CDISCPILOT01","701","701","01-701-1034","2014-07-01","2014-12-30","Xanomeline High Dose",81,77,"65-80",2,"WHITE",1,"F","Y","Y","Y","          Week 8",8,57,"2014-08-26",8,"WEEK 8","NPI-X Item D (Depression/Dysphoria) Score","NPITM04S",4,"",0,0,0,null,"","Y","","50 - 63",56,1,50,63,"DAYS",3120],["CDISCPILOT01","701","701","01-701-1034","2014-07-01","2014-12-30","Xanomeline High Dose",81,77,"65-80",2,"WHITE",1,"F","Y","Y","Y","         Week 10",10,71,"2014-09-09",8.1,"WEEK 10 (T)","NPI-X Item D (Depression/Dysphoria) Score","NPITM04S",4,"",0,0,0,null,"","Y","","64 - 77",70,1,64,77,"DAYS",3147],["CDISCPILOT01","701","701","01-701-1034","2014-07-01","2014-12-30","Xanomeline High Dose",81,77,"65-80",2,"WHITE",1,"F","Y","Y","Y","         Week 12",12,87,"2014-09-25",9,"WEEK 12","NPI-X Item D (Depression/Dysphoria) Score","NPITM04S",4,"",0,0,0,null,"","Y","","78 - 91",84,3,78,91,"DAYS",3172],["CDISCPILOT01","701","701","01-701-1034","2014-07-01","2014-12-30","Xanomeline High Dose",81,77,"65-80",2,"WHITE",1,"F","Y","Y","Y","         Week 14",14,99,"2014-10-07",9.1,"WEEK 14 (T)","NPI-X Item D (Depression/Dysphoria) Score","NPITM04S",4,"",0,0,0,null,"","Y","","92 - 105",98,1,92,105,"DAYS",3197],["CDISCPILOT01","701","701","01-701-1034","2014-07-01","2014-12-30","Xanomeline High Dose",81,77,"65-80",2,"WHITE",1,"F","Y","Y","Y","         Week 16",16,113,"2014-10-21",10,"WEEK 16","NPI-X Item D (Depression/Dysphoria) Score","NPITM04S",4,"",0,0,0,null,"","Y","","106 - 119",112,1,106,119,"DAYS",3222],["CDISCPILOT01","701","701","01-701-1034","2014-07-01","2014-12-30","Xanomeline High Dose",81,77,"65-80",2,"WHITE",1,"F","Y","Y","Y","         Week 18",18,127,"2014-11-04",10.1,"WEEK 18 (T)","NPI-X Item D (Depression/Dysphoria) Score","NPITM04S",4,"",0,0,0,null,"","Y","","120 - 133",126,1,120,133,"DAYS",3249],["CDISCPILOT01","701","701","01-701-1034","2014-07-01","2014-12-30","Xanomeline High Dose",81,77,"65-80",2,"WHITE",1,"F","Y","Y","Y","         Week 20",20,141,"2014-11-18",11,"WEEK 20","NPI-X Item D (Depression/Dysphoria) Score","NPITM04S",4,"",0,0,0,null,"","Y","","134 - 147",140,1,134,147,"DAYS",3278],["CDISCPILOT01","701","701","01-701-1034","2014-07-01","2014-12-30","Xanomeline High Dose",81,77,"65-80",2,"WHITE",1,"F","Y","Y","Y","         Week 22",22,155,"2014-12-02",11.1,"WEEK 22 (T)","NPI-X Item D (Depression/Dysphoria) Score","NPITM04S",4,"",0,0,0,null,"","Y","","148 - 161",154,1,148,161,"DAYS",3305],["CDISCPILOT01","701","701","01-701-1034","2014-07-01","2014-12-30","Xanomeline High Dose",81,77,"65-80",2,"WHITE",1,"F","Y","Y","Y","         Week 24",24,170,"2014-12-17",12,"WEEK 24","NPI-X Item D (Depression/Dysphoria) Score","NPITM04S",4,"",0,0,0,null,"","Y","","162 - 175",168,2,162,175,"DAYS",3332],["CDISCPILOT01","701","701","01-701-1034","2014-07-01","2014-12-30","Xanomeline High Dose",81,77,"65-80",2,"WHITE",1,"F","Y","Y","Y","         Week 26",26,183,"2014-12-30",13,"WEEK 26","NPI-X Item D (Depression/Dysphoria) Score","NPITM04S",4,"",0,0,0,null,"","Y","",">175",182,1,176,null,"DAYS",3357],["CDISCPILOT01","701","701","01-701-1034","2014-07-01","2014-12-30","Xanomeline High Dose",81,77,"65-80",2,"WHITE",1,"F","Y","Y","Y","        Baseline",0,1,"2014-07-01",3,"BASELINE","NPI-X Item E (Anxiety) Score","NPITM05S",5,"",0,0,0,null,"Y","Y","","<= 1",1,0,null,1,"DAYS",3010],["CDISCPILOT01","701","701","01-701-1034","2014-07-01","2014-12-30","Xanomeline High Dose",81,77,"65-80",2,"WHITE",1,"F","Y","Y","Y","          Week 2",2,15,"2014-07-15",4,"WEEK 2","NPI-X Item E (Anxiety) Score","NPITM05S",5,"",0,0,0,null,"","Y","","2 - 21",14,1,2,21,"DAYS",3035],["CDISCPILOT01","701","701","01-701-1034","2014-07-01","2014-12-30","Xanomeline High Dose",81,77,"65-80",2,"WHITE",1,"F","Y","Y","Y","          Week 4",4,29,"2014-07-29",5,"WEEK 4","NPI-X Item E (Anxiety) Score","NPITM05S",5,"",0,0,0,null,"","Y","","22 - 35",28,1,22,35,"DAYS",3060],["CDISCPILOT01","701","701","01-701-1034","2014-07-01","2014-12-30","Xanomeline High Dose",81,77,"65-80",2,"WHITE",1,"F","Y","Y","Y","          Week 6",6,42,"2014-08-11",7,"WEEK 6","NPI-X Item E (Anxiety) Score","NPITM05S",5,"",0,0,0,null,"","Y","","36 - 49",42,0,36,49,"DAYS",3093],["CDISCPILOT01","701","701","01-701-1034","2014-07-01","2014-12-30","Xanomeline High Dose",81,77,"65-80",2,"WHITE",1,"F","Y","Y","Y","          Week 8",8,57,"2014-08-26",8,"WEEK 8","NPI-X Item E (Anxiety) Score","NPITM05S",5,"",0,0,0,null,"","Y","","50 - 63",56,1,50,63,"DAYS",3122],["CDISCPILOT01","701","701","01-701-1034","2014-07-01","2014-12-30","Xanomeline High Dose",81,77,"65-80",2,"WHITE",1,"F","Y","Y","Y","         Week 10",10,71,"2014-09-09",8.1,"WEEK 10 (T)","NPI-X Item E (Anxiety) Score","NPITM05S",5,"",0,0,0,null,"","Y","","64 - 77",70,1,64,77,"DAYS",3149],["CDISCPILOT01","701","701","01-701-1034","2014-07-01","2014-12-30","Xanomeline High Dose",81,77,"65-80",2,"WHITE",1,"F","Y","Y","Y","         Week 12",12,87,"2014-09-25",9,"WEEK 12","NPI-X Item E (Anxiety) Score","NPITM05S",5,"",0,0,0,null,"","Y","","78 - 91",84,3,78,91,"DAYS",3174],["CDISCPILOT01","701","701","01-701-1034","2014-07-01","2014-12-30","Xanomeline High Dose",81,77,"65-80",2,"WHITE",1,"F","Y","Y","Y","         Week 14",14,99,"2014-10-07",9.1,"WEEK 14 (T)","NPI-X Item E (Anxiety) Score","NPITM05S",5,"",0,0,0,null,"","Y","","92 - 105",98,1,92,105,"DAYS",3199],["CDISCPILOT01","701","701","01-701-1034","2014-07-01","2014-12-30","Xanomeline High Dose",81,77,"65-80",2,"WHITE",1,"F","Y","Y","Y","         Week 16",16,113,"2014-10-21",10,"WEEK 16","NPI-X Item E (Anxiety) Score","NPITM05S",5,"",0,0,0,null,"","Y","","106 - 119",112,1,106,119,"DAYS",3224],["CDISCPILOT01","701","701","01-701-1034","2014-07-01","2014-12-30","Xanomeline High Dose",81,77,"65-80",2,"WHITE",1,"F","Y","Y","Y","         Week 18",18,127,"2014-11-04",10.1,"WEEK 18 (T)","NPI-X Item E (Anxiety) Score","NPITM05S",5,"",0,0,0,null,"","Y","","120 - 133",126,1,120,133,"DAYS",3251],["CDISCPILOT01","701","701","01-701-1034","2014-07-01","2014-12-30","Xanomeline High Dose",81,77,"65-80",2,"WHITE",1,"F","Y","Y","Y","         Week 20",20,141,"2014-11-18",11,"WEEK 20","NPI-X Item E (Anxiety) Score","NPITM05S",5,"",0,0,0,null,"","Y","","134 - 147",140,1,134,147,"DAYS",3280],["CDISCPILOT01","701","701","01-701-1034","2014-07-01","2014-12-30","Xanomeline High Dose",81,77,"65-80",2,"WHITE",1,"F","Y","Y","Y","         Week 22",22,155,"2014-12-02",11.1,"WEEK 22 (T)","NPI-X Item E (Anxiety) Score","NPITM05S",5,"",0,0,0,null,"","Y","","148 - 161",154,1,148,161,"DAYS",3307],["CDISCPILOT01","701","701","01-701-1034","2014-07-01","2014-12-30","Xanomeline High Dose",81,77,"65-80",2,"WHITE",1,"F","Y","Y","Y","         Week 24",24,170,"2014-12-17",12,"WEEK 24","NPI-X Item E (Anxiety) Score","NPITM05S",5,"",0,0,0,null,"","Y","","162 - 175",168,2,162,175,"DAYS",3334],["CDISCPILOT01","701","701","01-701-1034","2014-07-01","2014-12-30","Xanomeline High Dose",81,77,"65-80",2,"WHITE",1,"F","Y","Y","Y","         Week 26",26,183,"2014-12-30",13,"WEEK 26","NPI-X Item E (Anxiety) Score","NPITM05S",5,"",0,0,0,null,"","Y","",">175",182,1,176,null,"DAYS",3359],["CDISCPILOT01","701","701","01-701-1034","2014-07-01","2014-12-30","Xanomeline High Dose",81,77,"65-80",2,"WHITE",1,"F","Y","Y","Y","        Baseline",0,1,"2014-07-01",3,"BASELINE","NPI-X Item F (Eupohoria/Elation) Score","NPITM06S",6,"",0,0,0,null,"Y","Y","","<= 1",1,0,null,1,"DAYS",3012],["CDISCPILOT01","701","701","01-701-1034","2014-07-01","2014-12-30","Xanomeline High Dose",81,77,"65-80",2,"WHITE",1,"F","Y","Y","Y","          Week 2",2,15,"2014-07-15",4,"WEEK 2","NPI-X Item F (Eupohoria/Elation) Score","NPITM06S",6,"",0,0,0,null,"","Y","","2 - 21",14,1,2,21,"DAYS",3037],["CDISCPILOT01","701","701","01-701-1034","2014-07-01","2014-12-30","Xanomeline High Dose",81,77,"65-80",2,"WHITE",1,"F","Y","Y","Y","          Week 4",4,29,"2014-07-29",5,"WEEK 4","NPI-X Item F (Eupohoria/Elation) Score","NPITM06S",6,"",0,0,0,null,"","Y","","22 - 35",28,1,22,35,"DAYS",3062],["CDISCPILOT01","701","701","01-701-1034","2014-07-01","2014-12-30","Xanomeline High Dose",81,77,"65-80",2,"WHITE",1,"F","Y","Y","Y","          Week 6",6,42,"2014-08-11",7,"WEEK 6","NPI-X Item F (Eupohoria/Elation) Score","NPITM06S",6,"",0,0,0,null,"","Y","","36 - 49",42,0,36,49,"DAYS",3095],["CDISCPILOT01","701","701","01-701-1034","2014-07-01","2014-12-30","Xanomeline High Dose",81,77,"65-80",2,"WHITE",1,"F","Y","Y","Y","          Week 8",8,57,"2014-08-26",8,"WEEK 8","NPI-X Item F (Eupohoria/Elation) Score","NPITM06S",6,"",0,0,0,null,"","Y","","50 - 63",56,1,50,63,"DAYS",3124],["CDISCPILOT01","701","701","01-701-1034","2014-07-01","2014-12-30","Xanomeline High Dose",81,77,"65-80",2,"WHITE",1,"F","Y","Y","Y","         Week 10",10,71,"2014-09-09",8.1,"WEEK 10 (T)","NPI-X Item F (Eupohoria/Elation) Score","NPITM06S",6,"",0,0,0,null,"","Y","","64 - 77",70,1,64,77,"DAYS",3151],["CDISCPILOT01","701","701","01-701-1034","2014-07-01","2014-12-30","Xanomeline High Dose",81,77,"65-80",2,"WHITE",1,"F","Y","Y","Y","         Week 12",12,87,"2014-09-25",9,"WEEK 12","NPI-X Item F (Eupohoria/Elation) Score","NPITM06S",6,"",0,0,0,null,"","Y","","78 - 91",84,3,78,91,"DAYS",3176],["CDISCPILOT01","701","701","01-701-1034","2014-07-01","2014-12-30","Xanomeline High Dose",81,77,"65-80",2,"WHITE",1,"F","Y","Y","Y","         Week 14",14,99,"2014-10-07",9.1,"WEEK 14 (T)","NPI-X Item F (Eupohoria/Elation) Score","NPITM06S",6,"",0,0,0,null,"","Y","","92 - 105",98,1,92,105,"DAYS",3201],["CDISCPILOT01","701","701","01-701-1034","2014-07-01","2014-12-30","Xanomeline High Dose",81,77,"65-80",2,"WHITE",1,"F","Y","Y","Y","         Week 16",16,113,"2014-10-21",10,"WEEK 16","NPI-X Item F (Eupohoria/Elation) Score","NPITM06S",6,"",0,0,0,null,"","Y","","106 - 119",112,1,106,119,"DAYS",3226],["CDISCPILOT01","701","701","01-701-1034","2014-07-01","2014-12-30","Xanomeline High Dose",81,77,"65-80",2,"WHITE",1,"F","Y","Y","Y","         Week 18",18,127,"2014-11-04",10.1,"WEEK 18 (T)","NPI-X Item F (Eupohoria/Elation) Score","NPITM06S",6,"",0,0,0,null,"","Y","","120 - 133",126,1,120,133,"DAYS",3253],["CDISCPILOT01","701","701","01-701-1034","2014-07-01","2014-12-30","Xanomeline High Dose",81,77,"65-80",2,"WHITE",1,"F","Y","Y","Y","         Week 20",20,141,"2014-11-18",11,"WEEK 20","NPI-X Item F (Eupohoria/Elation) Score","NPITM06S",6,"",0,0,0,null,"","Y","","134 - 147",140,1,134,147,"DAYS",3282],["CDISCPILOT01","701","701","01-701-1034","2014-07-01","2014-12-30","Xanomeline High Dose",81,77,"65-80",2,"WHITE",1,"F","Y","Y","Y","         Week 22",22,155,"2014-12-02",11.1,"WEEK 22 (T)","NPI-X Item F (Eupohoria/Elation) Score","NPITM06S",6,"",0,0,0,null,"","Y","","148 - 161",154,1,148,161,"DAYS",3309],["CDISCPILOT01","701","701","01-701-1034","2014-07-01","2014-12-30","Xanomeline High Dose",81,77,"65-80",2,"WHITE",1,"F","Y","Y","Y","         Week 24",24,170,"2014-12-17",12,"WEEK 24","NPI-X Item F (Eupohoria/Elation) Score","NPITM06S",6,"",0,0,0,null,"","Y","","162 - 175",168,2,162,175,"DAYS",3336],["CDISCPILOT01","701","701","01-701-1034","2014-07-01","2014-12-30","Xanomeline High Dose",81,77,"65-80",2,"WHITE",1,"F","Y","Y","Y","         Week 26",26,183,"2014-12-30",13,"WEEK 26","NPI-X Item F (Eupohoria/Elation) Score","NPITM06S",6,"",0,0,0,null,"","Y","",">175",182,1,176,null,"DAYS",3361],["CDISCPILOT01","701","701","01-701-1034","2014-07-01","2014-12-30","Xanomeline High Dose",81,77,"65-80",2,"WHITE",1,"F","Y","Y","Y","        Baseline",0,1,"2014-07-01",3,"BASELINE","NPI-X Item G (Apathy/Indifference) Score","NPITM07S",7,"",0,0,0,null,"Y","Y","","<= 1",1,0,null,1,"DAYS",3014],["CDISCPILOT01","701","701","01-701-1034","2014-07-01","2014-12-30","Xanomeline High Dose",81,77,"65-80",2,"WHITE",1,"F","Y","Y","Y","          Week 2",2,15,"2014-07-15",4,"WEEK 2","NPI-X Item G (Apathy/Indifference) Score","NPITM07S",7,"",0,0,0,null,"","Y","","2 - 21",14,1,2,21,"DAYS",3039],["CDISCPILOT01","701","701","01-701-1034","2014-07-01","2014-12-30","Xanomeline High Dose",81,77,"65-80",2,"WHITE",1,"F","Y","Y","Y","          Week 4",4,29,"2014-07-29",5,"WEEK 4","NPI-X Item G (Apathy/Indifference) Score","NPITM07S",7,"",0,0,0,null,"","Y","","22 - 35",28,1,22,35,"DAYS",3064],["CDISCPILOT01","701","701","01-701-1034","2014-07-01","2014-12-30","Xanomeline High Dose",81,77,"65-80",2,"WHITE",1,"F","Y","Y","Y","          Week 6",6,42,"2014-08-11",7,"WEEK 6","NPI-X Item G (Apathy/Indifference) Score","NPITM07S",7,"",0,0,0,null,"","Y","","36 - 49",42,0,36,49,"DAYS",3097],["CDISCPILOT01","701","701","01-701-1034","2014-07-01","2014-12-30","Xanomeline High Dose",81,77,"65-80",2,"WHITE",1,"F","Y","Y","Y","          Week 8",8,57,"2014-08-26",8,"WEEK 8","NPI-X Item G (Apathy/Indifference) Score","NPITM07S",7,"",0,0,0,null,"","Y","","50 - 63",56,1,50,63,"DAYS",3126],["CDISCPILOT01","701","701","01-701-1034","2014-07-01","2014-12-30","Xanomeline High Dose",81,77,"65-80",2,"WHITE",1,"F","Y","Y","Y","         Week 10",10,71,"2014-09-09",8.1,"WEEK 10 (T)","NPI-X Item G (Apathy/Indifference) Score","NPITM07S",7,"",0,0,0,null,"","Y","","64 - 77",70,1,64,77,"DAYS",3153],["CDISCPILOT01","701","701","01-701-1034","2014-07-01","2014-12-30","Xanomeline High Dose",81,77,"65-80",2,"WHITE",1,"F","Y","Y","Y","         Week 12",12,87,"2014-09-25",9,"WEEK 12","NPI-X Item G (Apathy/Indifference) Score","NPITM07S",7,"",0,0,0,null,"","Y","","78 - 91",84,3,78,91,"DAYS",3178],["CDISCPILOT01","701","701","01-701-1034","2014-07-01","2014-12-30","Xanomeline High Dose",81,77,"65-80",2,"WHITE",1,"F","Y","Y","Y","         Week 14",14,99,"2014-10-07",9.1,"WEEK 14 (T)","NPI-X Item G (Apathy/Indifference) Score","NPITM07S",7,"",0,0,0,null,"","Y","","92 - 105",98,1,92,105,"DAYS",3203],["CDISCPILOT01","701","701","01-701-1034","2014-07-01","2014-12-30","Xanomeline High Dose",81,77,"65-80",2,"WHITE",1,"F","Y","Y","Y","         Week 16",16,113,"2014-10-21",10,"WEEK 16","NPI-X Item G (Apathy/Indifference) Score","NPITM07S",7,"",0,0,0,null,"","Y","","106 - 119",112,1,106,119,"DAYS",3228],["CDISCPILOT01","701","701","01-701-1034","2014-07-01","2014-12-30","Xanomeline High Dose",81,77,"65-80",2,"WHITE",1,"F","Y","Y","Y","         Week 18",18,127,"2014-11-04",10.1,"WEEK 18 (T)","NPI-X Item G (Apathy/Indifference) Score","NPITM07S",7,"",0,0,0,null,"","Y","","120 - 133",126,1,120,133,"DAYS",3255],["CDISCPILOT01","701","701","01-701-1034","2014-07-01","2014-12-30","Xanomeline High Dose",81,77,"65-80",2,"WHITE",1,"F","Y","Y","Y","         Week 20",20,141,"2014-11-18",11,"WEEK 20","NPI-X Item G (Apathy/Indifference) Score","NPITM07S",7,"",0,0,0,null,"","Y","","134 - 147",140,1,134,147,"DAYS",3284],["CDISCPILOT01","701","701","01-701-1034","2014-07-01","2014-12-30","Xanomeline High Dose",81,77,"65-80",2,"WHITE",1,"F","Y","Y","Y","         Week 22",22,155,"2014-12-02",11.1,"WEEK 22 (T)","NPI-X Item G (Apathy/Indifference) Score","NPITM07S",7,"",0,0,0,null,"","Y","","148 - 161",154,1,148,161,"DAYS",3311],["CDISCPILOT01","701","701","01-701-1034","2014-07-01","2014-12-30","Xanomeline High Dose",81,77,"65-80",2,"WHITE",1,"F","Y","Y","Y","         Week 24",24,170,"2014-12-17",12,"WEEK 24","NPI-X Item G (Apathy/Indifference) Score","NPITM07S",7,"",0,0,0,null,"","Y","","162 - 175",168,2,162,175,"DAYS",3338],["CDISCPILOT01","701","701","01-701-1034","2014-07-01","2014-12-30","Xanomeline High Dose",81,77,"65-80",2,"WHITE",1,"F","Y","Y","Y","         Week 26",26,183,"2014-12-30",13,"WEEK 26","NPI-X Item G (Apathy/Indifference) Score","NPITM07S",7,"",0,0,0,null,"","Y","",">175",182,1,176,null,"DAYS",3363],["CDISCPILOT01","701","701","01-701-1034","2014-07-01","2014-12-30","Xanomeline High Dose",81,77,"65-80",2,"WHITE",1,"F","Y","Y","Y","        Baseline",0,1,"2014-07-01",3,"BASELINE","NPI-X Item H (Disinhibition) Score","NPITM08S",8,"",0,0,0,null,"Y","Y","","<= 1",1,0,null,1,"DAYS",3016],["CDISCPILOT01","701","701","01-701-1034","2014-07-01","2014-12-30","Xanomeline High Dose",81,77,"65-80",2,"WHITE",1,"F","Y","Y","Y","          Week 2",2,15,"2014-07-15",4,"WEEK 2","NPI-X Item H (Disinhibition) Score","NPITM08S",8,"",0,0,0,null,"","Y","","2 - 21",14,1,2,21,"DAYS",3041],["CDISCPILOT01","701","701","01-701-1034","2014-07-01","2014-12-30","Xanomeline High Dose",81,77,"65-80",2,"WHITE",1,"F","Y","Y","Y","          Week 4",4,29,"2014-07-29",5,"WEEK 4","NPI-X Item H (Disinhibition) Score","NPITM08S",8,"",1,0,1,null,"","Y","","22 - 35",28,1,22,35,"DAYS",3068],["CDISCPILOT01","701","701","01-701-1034","2014-07-01","2014-12-30","Xanomeline High Dose",81,77,"65-80",2,"WHITE",1,"F","Y","Y","Y","          Week 6",6,42,"2014-08-11",7,"WEEK 6","NPI-X Item H (Disinhibition) Score","NPITM08S",8,"",1,0,1,null,"","Y","","36 - 49",42,0,36,49,"DAYS",3101],["CDISCPILOT01","701","701","01-701-1034","2014-07-01","2014-12-30","Xanomeline High Dose",81,77,"65-80",2,"WHITE",1,"F","Y","Y","Y","          Week 8",8,57,"2014-08-26",8,"WEEK 8","NPI-X Item H (Disinhibition) Score","NPITM08S",8,"",0,0,0,null,"","Y","","50 - 63",56,1,50,63,"DAYS",3128],["CDISCPILOT01","701","701","01-701-1034","2014-07-01","2014-12-30","Xanomeline High Dose",81,77,"65-80",2,"WHITE",1,"F","Y","Y","Y","         Week 10",10,71,"2014-09-09",8.1,"WEEK 10 (T)","NPI-X Item H (Disinhibition) Score","NPITM08S",8,"",0,0,0,null,"","Y","","64 - 77",70,1,64,77,"DAYS",3155],["CDISCPILOT01","701","701","01-701-1034","2014-07-01","2014-12-30","Xanomeline High Dose",81,77,"65-80",2,"WHITE",1,"F","Y","Y","Y","         Week 12",12,87,"2014-09-25",9,"WEEK 12","NPI-X Item H (Disinhibition) Score","NPITM08S",8,"",0,0,0,null,"","Y","","78 - 91",84,3,78,91,"DAYS",3180],["CDISCPILOT01","701","701","01-701-1034","2014-07-01","2014-12-30","Xanomeline High Dose",81,77,"65-80",2,"WHITE",1,"F","Y","Y","Y","         Week 14",14,99,"2014-10-07",9.1,"WEEK 14 (T)","NPI-X Item H (Disinhibition) Score","NPITM08S",8,"",0,0,0,null,"","Y","","92 - 105",98,1,92,105,"DAYS",3205],["CDISCPILOT01","701","701","01-701-1034","2014-07-01","2014-12-30","Xanomeline High Dose",81,77,"65-80",2,"WHITE",1,"F","Y","Y","Y","         Week 16",16,113,"2014-10-21",10,"WEEK 16","NPI-X Item H (Disinhibition) Score","NPITM08S",8,"",0,0,0,null,"","Y","","106 - 119",112,1,106,119,"DAYS",3230],["CDISCPILOT01","701","701","01-701-1034","2014-07-01","2014-12-30","Xanomeline High Dose",81,77,"65-80",2,"WHITE",1,"F","Y","Y","Y","         Week 18",18,127,"2014-11-04",10.1,"WEEK 18 (T)","NPI-X Item H (Disinhibition) Score","NPITM08S",8,"",1,0,1,null,"","Y","","120 - 133",126,1,120,133,"DAYS",3259],["CDISCPILOT01","701","701","01-701-1034","2014-07-01","2014-12-30","Xanomeline High Dose",81,77,"65-80",2,"WHITE",1,"F","Y","Y","Y","         Week 20",20,141,"2014-11-18",11,"WEEK 20","NPI-X Item H (Disinhibition) Score","NPITM08S",8,"",0,0,0,null,"","Y","","134 - 147",140,1,134,147,"DAYS",3286],["CDISCPILOT01","701","701","01-701-1034","2014-07-01","2014-12-30","Xanomeline High Dose",81,77,"65-80",2,"WHITE",1,"F","Y","Y","Y","         Week 22",22,155,"2014-12-02",11.1,"WEEK 22 (T)","NPI-X Item H (Disinhibition) Score","NPITM08S",8,"",0,0,0,null,"","Y","","148 - 161",154,1,148,161,"DAYS",3313],["CDISCPILOT01","701","701","01-701-1034","2014-07-01","2014-12-30","Xanomeline High Dose",81,77,"65-80",2,"WHITE",1,"F","Y","Y","Y","         Week 24",24,170,"2014-12-17",12,"WEEK 24","NPI-X Item H (Disinhibition) Score","NPITM08S",8,"",0,0,0,null,"","Y","","162 - 175",168,2,162,175,"DAYS",3340],["CDISCPILOT01","701","701","01-701-1034","2014-07-01","2014-12-30","Xanomeline High Dose",81,77,"65-80",2,"WHITE",1,"F","Y","Y","Y","         Week 26",26,183,"2014-12-30",13,"WEEK 26","NPI-X Item H (Disinhibition) Score","NPITM08S",8,"",0,0,0,null,"","Y","",">175",182,1,176,null,"DAYS",3365],["CDISCPILOT01","701","701","01-701-1034","2014-07-01","2014-12-30","Xanomeline High Dose",81,77,"65-80",2,"WHITE",1,"F","Y","Y","Y","        Baseline",0,1,"2014-07-01",3,"BASELINE","NPI-X Item I (Irritability/Lability) Score","NPITM09S",9,"",0,0,0,null,"Y","Y","","<= 1",1,0,null,1,"DAYS",3018],["CDISCPILOT01","701","701","01-701-1034","2014-07-01","2014-12-30","Xanomeline High Dose",81,77,"65-80",2,"WHITE",1,"F","Y","Y","Y","          Week 2",2,15,"2014-07-15",4,"WEEK 2","NPI-X Item I (Irritability/Lability) Score","NPITM09S",9,"",0,0,0,null,"","Y","","2 - 21",14,1,2,21,"DAYS",3043],["CDISCPILOT01","701","701","01-701-1034","2014-07-01","2014-12-30","Xanomeline High Dose",81,77,"65-80",2,"WHITE",1,"F","Y","Y","Y","          Week 4",4,29,"2014-07-29",5,"WEEK 4","NPI-X Item I (Irritability/Lability) Score","NPITM09S",9,"",1,0,1,null,"","Y","","22 - 35",28,1,22,35,"DAYS",3072],["CDISCPILOT01","701","701","01-701-1034","2014-07-01","2014-12-30","Xanomeline High Dose",81,77,"65-80",2,"WHITE",1,"F","Y","Y","Y","          Week 6",6,42,"2014-08-11",7,"WEEK 6","NPI-X Item I (Irritability/Lability) Score","NPITM09S",9,"",1,0,1,null,"","Y","","36 - 49",42,0,36,49,"DAYS",3105],["CDISCPILOT01","701","701","01-701-1034","2014-07-01","2014-12-30","Xanomeline High Dose",81,77,"65-80",2,"WHITE",1,"F","Y","Y","Y","          Week 8",8,57,"2014-08-26",8,"WEEK 8","NPI-X Item I (Irritability/Lability) Score","NPITM09S",9,"",0,0,0,null,"","Y","","50 - 63",56,1,50,63,"DAYS",3130],["CDISCPILOT01","701","701","01-701-1034","2014-07-01","2014-12-30","Xanomeline High Dose",81,77,"65-80",2,"WHITE",1,"F","Y","Y","Y","         Week 10",10,71,"2014-09-09",8.1,"WEEK 10 (T)","NPI-X Item I (Irritability/Lability) Score","NPITM09S",9,"",0,0,0,null,"","Y","","64 - 77",70,1,64,77,"DAYS",3157],["CDISCPILOT01","701","701","01-701-1034","2014-07-01","2014-12-30","Xanomeline High Dose",81,77,"65-80",2,"WHITE",1,"F","Y","Y","Y","         Week 12",12,87,"2014-09-25",9,"WEEK 12","NPI-X Item I (Irritability/Lability) Score","NPITM09S",9,"",0,0,0,null,"","Y","","78 - 91",84,3,78,91,"DAYS",3182],["CDISCPILOT01","701","701","01-701-1034","2014-07-01","2014-12-30","Xanomeline High Dose",81,77,"65-80",2,"WHITE",1,"F","Y","Y","Y","         Week 14",14,99,"2014-10-07",9.1,"WEEK 14 (T)","NPI-X Item I (Irritability/Lability) Score","NPITM09S",9,"",0,0,0,null,"","Y","","92 - 105",98,1,92,105,"DAYS",3207],["CDISCPILOT01","701","701","01-701-1034","2014-07-01","2014-12-30","Xanomeline High Dose",81,77,"65-80",2,"WHITE",1,"F","Y","Y","Y","         Week 16",16,113,"2014-10-21",10,"WEEK 16","NPI-X Item I (Irritability/Lability) Score","NPITM09S",9,"",0,0,0,null,"","Y","","106 - 119",112,1,106,119,"DAYS",3232],["CDISCPILOT01","701","701","01-701-1034","2014-07-01","2014-12-30","Xanomeline High Dose",81,77,"65-80",2,"WHITE",1,"F","Y","Y","Y","         Week 18",18,127,"2014-11-04",10.1,"WEEK 18 (T)","NPI-X Item I (Irritability/Lability) Score","NPITM09S",9,"",1,0,1,null,"","Y","","120 - 133",126,1,120,133,"DAYS",3263],["CDISCPILOT01","701","701","01-701-1034","2014-07-01","2014-12-30","Xanomeline High Dose",81,77,"65-80",2,"WHITE",1,"F","Y","Y","Y","         Week 20",20,141,"2014-11-18",11,"WEEK 20","NPI-X Item I (Irritability/Lability) Score","NPITM09S",9,"",1,0,1,null,"","Y","","134 - 147",140,1,134,147,"DAYS",3290],["CDISCPILOT01","701","701","01-701-1034","2014-07-01","2014-12-30","Xanomeline High Dose",81,77,"65-80",2,"WHITE",1,"F","Y","Y","Y","         Week 22",22,155,"2014-12-02",11.1,"WEEK 22 (T)","NPI-X Item I (Irritability/Lability) Score","NPITM09S",9,"",0,0,0,null,"","Y","","148 - 161",154,1,148,161,"DAYS",3315],["CDISCPILOT01","701","701","01-701-1034","2014-07-01","2014-12-30","Xanomeline High Dose",81,77,"65-80",2,"WHITE",1,"F","Y","Y","Y","         Week 24",24,170,"2014-12-17",12,"WEEK 24","NPI-X Item I (Irritability/Lability) Score","NPITM09S",9,"",0,0,0,null,"","Y","","162 - 175",168,2,162,175,"DAYS",3342],["CDISCPILOT01","701","701","01-701-1034","2014-07-01","2014-12-30","Xanomeline High Dose",81,77,"65-80",2,"WHITE",1,"F","Y","Y","Y","         Week 26",26,183,"2014-12-30",13,"WEEK 26","NPI-X Item I (Irritability/Lability) Score","NPITM09S",9,"",0,0,0,null,"","Y","",">175",182,1,176,null,"DAYS",3367],["CDISCPILOT01","701","701","01-701-1034","2014-07-01","2014-12-30","Xanomeline High Dose",81,77,"65-80",2,"WHITE",1,"F","Y","Y","Y","        Baseline",0,1,"2014-07-01",3,"BASELINE","NPI-X Item J (Aberrant Motor Behavior) Score","NPITM10S",10,"",0,0,0,null,"Y","Y","","<= 1",1,0,null,1,"DAYS",3020],["CDISCPILOT01","701","701","01-701-1034","2014-07-01","2014-12-30","Xanomeline High Dose",81,77,"65-80",2,"WHITE",1,"F","Y","Y","Y","          Week 2",2,15,"2014-07-15",4,"WEEK 2","NPI-X Item J (Aberrant Motor Behavior) Score","NPITM10S",10,"",0,0,0,null,"","Y","","2 - 21",14,1,2,21,"DAYS",3045],["CDISCPILOT01","701","701","01-701-1034","2014-07-01","2014-12-30","Xanomeline High Dose",81,77,"65-80",2,"WHITE",1,"F","Y","Y","Y","          Week 4",4,29,"2014-07-29",5,"WEEK 4","NPI-X Item J (Aberrant Motor Behavior) Score","NPITM10S",10,"",0,0,0,null,"","Y","","22 - 35",28,1,22,35,"DAYS",3074],["CDISCPILOT01","701","701","01-701-1034","2014-07-01","2014-12-30","Xanomeline High Dose",81,77,"65-80",2,"WHITE",1,"F","Y","Y","Y","          Week 6",6,42,"2014-08-11",7,"WEEK 6","NPI-X Item J (Aberrant Motor Behavior) Score","NPITM10S",10,"",0,0,0,null,"","Y","","36 - 49",42,0,36,49,"DAYS",3107],["CDISCPILOT01","701","701","01-701-1034","2014-07-01","2014-12-30","Xanomeline High Dose",81,77,"65-80",2,"WHITE",1,"F","Y","Y","Y","          Week 8",8,57,"2014-08-26",8,"WEEK 8","NPI-X Item J (Aberrant Motor Behavior) Score","NPITM10S",10,"",0,0,0,null,"","Y","","50 - 63",56,1,50,63,"DAYS",3132],["CDISCPILOT01","701","701","01-701-1034","2014-07-01","2014-12-30","Xanomeline High Dose",81,77,"65-80",2,"WHITE",1,"F","Y","Y","Y","         Week 10",10,71,"2014-09-09",8.1,"WEEK 10 (T)","NPI-X Item J (Aberrant Motor Behavior) Score","NPITM10S",10,"",0,0,0,null,"","Y","","64 - 77",70,1,64,77,"DAYS",3159],["CDISCPILOT01","701","701","01-701-1034","2014-07-01","2014-12-30","Xanomeline High Dose",81,77,"65-80",2,"WHITE",1,"F","Y","Y","Y","         Week 12",12,87,"2014-09-25",9,"WEEK 12","NPI-X Item J (Aberrant Motor Behavior) Score","NPITM10S",10,"",0,0,0,null,"","Y","","78 - 91",84,3,78,91,"DAYS",3184],["CDISCPILOT01","701","701","01-701-1034","2014-07-01","2014-12-30","Xanomeline High Dose",81,77,"65-80",2,"WHITE",1,"F","Y","Y","Y","         Week 14",14,99,"2014-10-07",9.1,"WEEK 14 (T)","NPI-X Item J (Aberrant Motor Behavior) Score","NPITM10S",10,"",0,0,0,null,"","Y","","92 - 105",98,1,92,105,"DAYS",3209],["CDISCPILOT01","701","701","01-701-1034","2014-07-01","2014-12-30","Xanomeline High Dose",81,77,"65-80",2,"WHITE",1,"F","Y","Y","Y","         Week 16",16,113,"2014-10-21",10,"WEEK 16","NPI-X Item J (Aberrant Motor Behavior) Score","NPITM10S",10,"",0,0,0,null,"","Y","","106 - 119",112,1,106,119,"DAYS",3234],["CDISCPILOT01","701","701","01-701-1034","2014-07-01","2014-12-30","Xanomeline High Dose",81,77,"65-80",2,"WHITE",1,"F","Y","Y","Y","         Week 18",18,127,"2014-11-04",10.1,"WEEK 18 (T)","NPI-X Item J (Aberrant Motor Behavior) Score","NPITM10S",10,"",0,0,0,null,"","Y","","120 - 133",126,1,120,133,"DAYS",3265],["CDISCPILOT01","701","701","01-701-1034","2014-07-01","2014-12-30","Xanomeline High Dose",81,77,"65-80",2,"WHITE",1,"F","Y","Y","Y","         Week 20",20,141,"2014-11-18",11,"WEEK 20","NPI-X Item J (Aberrant Motor Behavior) Score","NPITM10S",10,"",0,0,0,null,"","Y","","134 - 147",140,1,134,147,"DAYS",3292],["CDISCPILOT01","701","701","01-701-1034","2014-07-01","2014-12-30","Xanomeline High Dose",81,77,"65-80",2,"WHITE",1,"F","Y","Y","Y","         Week 22",22,155,"2014-12-02",11.1,"WEEK 22 (T)","NPI-X Item J (Aberrant Motor Behavior) Score","NPITM10S",10,"",0,0,0,null,"","Y","","148 - 161",154,1,148,161,"DAYS",3317],["CDISCPILOT01","701","701","01-701-1034","2014-07-01","2014-12-30","Xanomeline High Dose",81,77,"65-80",2,"WHITE",1,"F","Y","Y","Y","         Week 24",24,170,"2014-12-17",12,"WEEK 24","NPI-X Item J (Aberrant Motor Behavior) Score","NPITM10S",10,"",0,0,0,null,"","Y","","162 - 175",168,2,162,175,"DAYS",3344],["CDISCPILOT01","701","701","01-701-1034","2014-07-01","2014-12-30","Xanomeline High Dose",81,77,"65-80",2,"WHITE",1,"F","Y","Y","Y","         Week 26",26,183,"2014-12-30",13,"WEEK 26","NPI-X Item J (Aberrant Motor Behavior) Score","NPITM10S",10,"",0,0,0,null,"","Y","",">175",182,1,176,null,"DAYS",3369],["CDISCPILOT01","701","701","01-701-1034","2014-07-01","2014-12-30","Xanomeline High Dose",81,77,"65-80",2,"WHITE",1,"F","Y","Y","Y","        Baseline",0,1,"2014-07-01",3,"BASELINE","NPI-X Item K (Night-time Behavior) Score","NPITM11S",11,"",0,0,0,null,"Y","Y","","<= 1",1,0,null,1,"DAYS",3022],["CDISCPILOT01","701","701","01-701-1034","2014-07-01","2014-12-30","Xanomeline High Dose",81,77,"65-80",2,"WHITE",1,"F","Y","Y","Y","          Week 2",2,15,"2014-07-15",4,"WEEK 2","NPI-X Item K (Night-time Behavior) Score","NPITM11S",11,"",0,0,0,null,"","Y","","2 - 21",14,1,2,21,"DAYS",3047],["CDISCPILOT01","701","701","01-701-1034","2014-07-01","2014-12-30","Xanomeline High Dose",81,77,"65-80",2,"WHITE",1,"F","Y","Y","Y","          Week 4",4,29,"2014-07-29",5,"WEEK 4","NPI-X Item K (Night-time Behavior) Score","NPITM11S",11,"",0,0,0,null,"","Y","","22 - 35",28,1,22,35,"DAYS",3076],["CDISCPILOT01","701","701","01-701-1034","2014-07-01","2014-12-30","Xanomeline High Dose",81,77,"65-80",2,"WHITE",1,"F","Y","Y","Y","          Week 6",6,42,"2014-08-11",7,"WEEK 6","NPI-X Item K (Night-time Behavior) Score","NPITM11S",11,"",0,0,0,null,"","Y","","36 - 49",42,0,36,49,"DAYS",3109],["CDISCPILOT01","701","701","01-701-1034","2014-07-01","2014-12-30","Xanomeline High Dose",81,77,"65-80",2,"WHITE",1,"F","Y","Y","Y","          Week 8",8,57,"2014-08-26",8,"WEEK 8","NPI-X Item K (Night-time Behavior) Score","NPITM11S",11,"",0,0,0,null,"","Y","","50 - 63",56,1,50,63,"DAYS",3134],["CDISCPILOT01","701","701","01-701-1034","2014-07-01","2014-12-30","Xanomeline High Dose",81,77,"65-80",2,"WHITE",1,"F","Y","Y","Y","         Week 10",10,71,"2014-09-09",8.1,"WEEK 10 (T)","NPI-X Item K (Night-time Behavior) Score","NPITM11S",11,"",0,0,0,null,"","Y","","64 - 77",70,1,64,77,"DAYS",3161],["CDISCPILOT01","701","701","01-701-1034","2014-07-01","2014-12-30","Xanomeline High Dose",81,77,"65-80",2,"WHITE",1,"F","Y","Y","Y","         Week 12",12,87,"2014-09-25",9,"WEEK 12","NPI-X Item K (Night-time Behavior) Score","NPITM11S",11,"",0,0,0,null,"","Y","","78 - 91",84,3,78,91,"DAYS",3186],["CDISCPILOT01","701","701","01-701-1034","2014-07-01","2014-12-30","Xanomeline High Dose",81,77,"65-80",2,"WHITE",1,"F","Y","Y","Y","         Week 14",14,99,"2014-10-07",9.1,"WEEK 14 (T)","NPI-X Item K (Night-time Behavior) Score","NPITM11S",11,"",0,0,0,null,"","Y","","92 - 105",98,1,92,105,"DAYS",3211],["CDISCPILOT01","701","701","01-701-1034","2014-07-01","2014-12-30","Xanomeline High Dose",81,77,"65-80",2,"WHITE",1,"F","Y","Y","Y","         Week 16",16,113,"2014-10-21",10,"WEEK 16","NPI-X Item K (Night-time Behavior) Score","NPITM11S",11,"",0,0,0,null,"","Y","","106 - 119",112,1,106,119,"DAYS",3236],["CDISCPILOT01","701","701","01-701-1034","2014-07-01","2014-12-30","Xanomeline High Dose",81,77,"65-80",2,"WHITE",1,"F","Y","Y","Y","         Week 18",18,127,"2014-11-04",10.1,"WEEK 18 (T)","NPI-X Item K (Night-time Behavior) Score","NPITM11S",11,"",0,0,0,null,"","Y","","120 - 133",126,1,120,133,"DAYS",3267],["CDISCPILOT01","701","701","01-701-1034","2014-07-01","2014-12-30","Xanomeline High Dose",81,77,"65-80",2,"WHITE",1,"F","Y","Y","Y","         Week 20",20,141,"2014-11-18",11,"WEEK 20","NPI-X Item K (Night-time Behavior) Score","NPITM11S",11,"",0,0,0,null,"","Y","","134 - 147",140,1,134,147,"DAYS",3294],["CDISCPILOT01","701","701","01-701-1034","2014-07-01","2014-12-30","Xanomeline High Dose",81,77,"65-80",2,"WHITE",1,"F","Y","Y","Y","         Week 22",22,155,"2014-12-02",11.1,"WEEK 22 (T)","NPI-X Item K (Night-time Behavior) Score","NPITM11S",11,"",0,0,0,null,"","Y","","148 - 161",154,1,148,161,"DAYS",3319],["CDISCPILOT01","701","701","01-701-1034","2014-07-01","2014-12-30","Xanomeline High Dose",81,77,"65-80",2,"WHITE",1,"F","Y","Y","Y","         Week 24",24,170,"2014-12-17",12,"WEEK 24","NPI-X Item K (Night-time Behavior) Score","NPITM11S",11,"",0,0,0,null,"","Y","","162 - 175",168,2,162,175,"DAYS",3346],["CDISCPILOT01","701","701","01-701-1034","2014-07-01","2014-12-30","Xanomeline High Dose",81,77,"65-80",2,"WHITE",1,"F","Y","Y","Y","         Week 26",26,183,"2014-12-30",13,"WEEK 26","NPI-X Item K (Night-time Behavior) Score","NPITM11S",11,"",0,0,0,null,"","Y","",">175",182,1,176,null,"DAYS",3371],["CDISCPILOT01","701","701","01-701-1034","2014-07-01","2014-12-30","Xanomeline High Dose",81,77,"65-80",2,"WHITE",1,"F","Y","Y","Y","        Baseline",0,1,"2014-07-01",3,"BASELINE","NPI-X Item L (Appetite/Eating Change) Score","NPITM12S",12,"",0,0,0,null,"Y","Y","","<= 1",1,0,null,1,"DAYS",3024],["CDISCPILOT01","701","701","01-701-1034","2014-07-01","2014-12-30","Xanomeline High Dose",81,77,"65-80",2,"WHITE",1,"F","Y","Y","Y","          Week 2",2,15,"2014-07-15",4,"WEEK 2","NPI-X Item L (Appetite/Eating Change) Score","NPITM12S",12,"",0,0,0,null,"","Y","","2 - 21",14,1,2,21,"DAYS",3049],["CDISCPILOT01","701","701","01-701-1034","2014-07-01","2014-12-30","Xanomeline High Dose",81,77,"65-80",2,"WHITE",1,"F","Y","Y","Y","          Week 4",4,29,"2014-07-29",5,"WEEK 4","NPI-X Item L (Appetite/Eating Change) Score","NPITM12S",12,"",0,0,0,null,"","Y","","22 - 35",28,1,22,35,"DAYS",3080],["CDISCPILOT01","701","701","01-701-1034","2014-07-01","2014-12-30","Xanomeline High Dose",81,77,"65-80",2,"WHITE",1,"F","Y","Y","Y","          Week 6",6,42,"2014-08-11",7,"WEEK 6","NPI-X Item L (Appetite/Eating Change) Score","NPITM12S",12,"",0,0,0,null,"","Y","","36 - 49",42,0,36,49,"DAYS",3111],["CDISCPILOT01","701","701","01-701-1034","2014-07-01","2014-12-30","Xanomeline High Dose",81,77,"65-80",2,"WHITE",1,"F","Y","Y","Y","          Week 8",8,57,"2014-08-26",8,"WEEK 8","NPI-X Item L (Appetite/Eating Change) Score","NPITM12S",12,"",0,0,0,null,"","Y","","50 - 63",56,1,50,63,"DAYS",3136],["CDISCPILOT01","701","701","01-701-1034","2014-07-01","2014-12-30","Xanomeline High Dose",81,77,"65-80",2,"WHITE",1,"F","Y","Y","Y","         Week 10",10,71,"2014-09-09",8.1,"WEEK 10 (T)","NPI-X Item L (Appetite/Eating Change) Score","NPITM12S",12,"",0,0,0,null,"","Y","","64 - 77",70,1,64,77,"DAYS",3163],["CDISCPILOT01","701","701","01-701-1034","2014-07-01","2014-12-30","Xanomeline High Dose",81,77,"65-80",2,"WHITE",1,"F","Y","Y","Y","         Week 12",12,87,"2014-09-25",9,"WEEK 12","NPI-X Item L (Appetite/Eating Change) Score","NPITM12S",12,"",0,0,0,null,"","Y","","78 - 91",84,3,78,91,"DAYS",3188],["CDISCPILOT01","701","701","01-701-1034","2014-07-01","2014-12-30","Xanomeline High Dose",81,77,"65-80",2,"WHITE",1,"F","Y","Y","Y","         Week 14",14,99,"2014-10-07",9.1,"WEEK 14 (T)","NPI-X Item L (Appetite/Eating Change) Score","NPITM12S",12,"",0,0,0,null,"","Y","","92 - 105",98,1,92,105,"DAYS",3213],["CDISCPILOT01","701","701","01-701-1034","2014-07-01","2014-12-30","Xanomeline High Dose",81,77,"65-80",2,"WHITE",1,"F","Y","Y","Y","         Week 16",16,113,"2014-10-21",10,"WEEK 16","NPI-X Item L (Appetite/Eating Change) Score","NPITM12S",12,"",0,0,0,null,"","Y","","106 - 119",112,1,106,119,"DAYS",3238],["CDISCPILOT01","701","701","01-701-1034","2014-07-01","2014-12-30","Xanomeline High Dose",81,77,"65-80",2,"WHITE",1,"F","Y","Y","Y","         Week 18",18,127,"2014-11-04",10.1,"WEEK 18 (T)","NPI-X Item L (Appetite/Eating Change) Score","NPITM12S",12,"",0,0,0,null,"","Y","","120 - 133",126,1,120,133,"DAYS",3269],["CDISCPILOT01","701","701","01-701-1034","2014-07-01","2014-12-30","Xanomeline High Dose",81,77,"65-80",2,"WHITE",1,"F","Y","Y","Y","         Week 20",20,141,"2014-11-18",11,"WEEK 20","NPI-X Item L (Appetite/Eating Change) Score","NPITM12S",12,"",0,0,0,null,"","Y","","134 - 147",140,1,134,147,"DAYS",3296],["CDISCPILOT01","701","701","01-701-1034","2014-07-01","2014-12-30","Xanomeline High Dose",81,77,"65-80",2,"WHITE",1,"F","Y","Y","Y","         Week 22",22,155,"2014-12-02",11.1,"WEEK 22 (T)","NPI-X Item L (Appetite/Eating Change) Score","NPITM12S",12,"",0,0,0,null,"","Y","","148 - 161",154,1,148,161,"DAYS",3321],["CDISCPILOT01","701","701","01-701-1034","2014-07-01","2014-12-30","Xanomeline High Dose",81,77,"65-80",2,"WHITE",1,"F","Y","Y","Y","         Week 24",24,170,"2014-12-17",12,"WEEK 24","NPI-X Item L (Appetite/Eating Change) Score","NPITM12S",12,"",0,0,0,null,"","Y","","162 - 175",168,2,162,175,"DAYS",3348],["CDISCPILOT01","701","701","01-701-1034","2014-07-01","2014-12-30","Xanomeline High Dose",81,77,"65-80",2,"WHITE",1,"F","Y","Y","Y","         Week 26",26,183,"2014-12-30",13,"WEEK 26","NPI-X Item L (Appetite/Eating Change) Score","NPITM12S",12,"",0,0,0,null,"","Y","",">175",182,1,176,null,"DAYS",3373],["CDISCPILOT01","701","701","01-701-1034","2014-07-01","2014-12-30","Xanomeline High Dose",81,77,"65-80",2,"WHITE",1,"F","Y","Y","Y","        Baseline",0,1,"2014-07-01",3,"BASELINE","NPI-X (9) Total Score","NPTOT",13,"",0,0,0,null,"Y","Y","","<= 1",1,0,null,1,"DAYS",3025],["CDISCPILOT01","701","701","01-701-1034","2014-07-01","2014-12-30","Xanomeline High Dose",81,77,"65-80",2,"WHITE",1,"F","Y","Y","Y","          Week 2",2,15,"2014-07-15",4,"WEEK 2","NPI-X (9) Total Score","NPTOT",13,"",0,0,0,null,"","Y","","2 - 21",14,1,2,21,"DAYS",3050],["CDISCPILOT01","701","701","01-701-1034","2014-07-01","2014-12-30","Xanomeline High Dose",81,77,"65-80",2,"WHITE",1,"F","Y","Y","Y","          Week 4",4,29,"2014-07-29",5,"WEEK 4","NPI-X (9) Total Score","NPTOT",13,"",2,0,2,null,"","Y","","22 - 35",28,1,22,35,"DAYS",3081],["CDISCPILOT01","701","701","01-701-1034","2014-07-01","2014-12-30","Xanomeline High Dose",81,77,"65-80",2,"WHITE",1,"F","Y","Y","Y","          Week 6",6,42,"2014-08-11",7,"WEEK 6","NPI-X (9) Total Score","NPTOT",13,"",3,0,3,null,"","Y","","36 - 49",42,0,36,49,"DAYS",3112],["CDISCPILOT01","701","701","01-701-1034","2014-07-01","2014-12-30","Xanomeline High Dose",81,77,"65-80",2,"WHITE",1,"F","Y","Y","Y","          Week 8",8,57,"2014-08-26",8,"WEEK 8","NPI-X (9) Total Score","NPTOT",13,"",0,0,0,null,"","Y","","50 - 63",56,1,50,63,"DAYS",3137],["CDISCPILOT01","701","701","01-701-1034","2014-07-01","2014-12-30","Xanomeline High Dose",81,77,"65-80",2,"WHITE",1,"F","Y","Y","Y","         Week 10",10,71,"2014-09-09",8.1,"WEEK 10 (T)","NPI-X (9) Total Score","NPTOT",13,"",1,0,1,null,"","Y","","64 - 77",70,1,64,77,"DAYS",3164],["CDISCPILOT01","701","701","01-701-1034","2014-07-01","2014-12-30","Xanomeline High Dose",81,77,"65-80",2,"WHITE",1,"F","Y","Y","Y","         Week 12",12,87,"2014-09-25",9,"WEEK 12","NPI-X (9) Total Score","NPTOT",13,"",0,0,0,null,"","Y","","78 - 91",84,3,78,91,"DAYS",3189],["CDISCPILOT01","701","701","01-701-1034","2014-07-01","2014-12-30","Xanomeline High Dose",81,77,"65-80",2,"WHITE",1,"F","Y","Y","Y","         Week 14",14,99,"2014-10-07",9.1,"WEEK 14 (T)","NPI-X (9) Total Score","NPTOT",13,"",0,0,0,null,"","Y","","92 - 105",98,1,92,105,"DAYS",3214],["CDISCPILOT01","701","701","01-701-1034","2014-07-01","2014-12-30","Xanomeline High Dose",81,77,"65-80",2,"WHITE",1,"F","Y","Y","Y","         Week 16",16,113,"2014-10-21",10,"WEEK 16","NPI-X (9) Total Score","NPTOT",13,"",0,0,0,null,"","Y","","106 - 119",112,1,106,119,"DAYS",3239],["CDISCPILOT01","701","701","01-701-1034","2014-07-01","2014-12-30","Xanomeline High Dose",81,77,"65-80",2,"WHITE",1,"F","Y","Y","Y","         Week 18",18,127,"2014-11-04",10.1,"WEEK 18 (T)","NPI-X (9) Total Score","NPTOT",13,"",5,0,5,null,"","Y","","120 - 133",126,1,120,133,"DAYS",3270],["CDISCPILOT01","701","701","01-701-1034","2014-07-01","2014-12-30","Xanomeline High Dose",81,77,"65-80",2,"WHITE",1,"F","Y","Y","Y","         Week 20",20,141,"2014-11-18",11,"WEEK 20","NPI-X (9) Total Score","NPTOT",13,"",1,0,1,null,"","Y","","134 - 147",140,1,134,147,"DAYS",3297],["CDISCPILOT01","701","701","01-701-1034","2014-07-01","2014-12-30","Xanomeline High Dose",81,77,"65-80",2,"WHITE",1,"F","Y","Y","Y","         Week 22",22,155,"2014-12-02",11.1,"WEEK 22 (T)","NPI-X (9) Total Score","NPTOT",13,"",0,0,0,null,"","Y","","148 - 161",154,1,148,161,"DAYS",3322],["CDISCPILOT01","701","701","01-701-1034","2014-07-01","2014-12-30","Xanomeline High Dose",81,77,"65-80",2,"WHITE",1,"F","Y","Y","Y","         Week 24",24,170,"2014-12-17",12,"WEEK 24","NPI-X (9) Total Score","NPTOT",13,"",1,0,1,null,"","Y","","162 - 175",168,2,162,175,"DAYS",3349],["CDISCPILOT01","701","701","01-701-1034","2014-07-01","2014-12-30","Xanomeline High Dose",81,77,"65-80",2,"WHITE",1,"F","Y","Y","Y","         Week 26",26,183,"2014-12-30",13,"WEEK 26","NPI-X (9) Total Score","NPTOT",13,"",0,0,0,null,"","Y","",">175",182,1,176,null,"DAYS",3374],["CDISCPILOT01","701","701","01-701-1034","2014-07-01","2014-12-30","Xanomeline High Dose",81,77,"65-80",2,"WHITE",1,"F","Y","Y","Y","        Baseline",0,1,"2014-07-01",3,"BASELINE","Mean NPI-X (9) Total (Week 4 to 24)","NPTOTMN",14,"DERIVED",0,0,0,null,"Y","Y","AVERAGE","<= 1",1,0,null,1,"DAYS",3025],["CDISCPILOT01","701","701","01-701-1034","2014-07-01","2014-12-30","Xanomeline High Dose",81,77,"65-80",2,"WHITE",1,"F","Y","Y","Y","      Weeks 4-24",98,null,null,null,"","Mean NPI-X (9) Total (Week 4 to 24)","NPTOTMN",14,"DERIVED",1,0,null,null,"","Y","AVERAGE","22 - 175",98,0,22,175,"DAYS",null],["CDISCPILOT01","701","701","01-701-1047","2013-02-12","2013-03-09","Placebo",0,85,">80",3,"WHITE",1,"F","Y","Y","N","        Baseline",0,1,"2013-02-12",3,"BASELINE","NPI-X Item A (Delusion) Score","NPITM01S",1,"",0,0,0,null,"Y","Y","","<= 1",1,0,null,1,"DAYS",3002],["CDISCPILOT01","701","701","01-701-1047","2013-02-12","2013-03-09","Placebo",0,85,">80",3,"WHITE",1,"F","Y","Y","N","          Week 2",2,14,"2013-02-25",4,"WEEK 2","NPI-X Item A (Delusion) Score","NPITM01S",1,"",0,0,0,null,"","Y","","2 - 21",14,0,2,21,"DAYS",3031],["CDISCPILOT01","701","701","01-701-1047","2013-02-12","2013-03-09","Placebo",0,85,">80",3,"WHITE",1,"F","Y","Y","N","          Week 6",6,46,"2013-03-29",6,"AMBUL ECG REMOVAL","NPI-X Item A (Delusion) Score","NPITM01S",1,"",0,0,0,null,"","Y","","36 - 49",42,4,36,49,"DAYS",3058],["CDISCPILOT01","701","701","01-701-1047","2013-02-12","2013-03-09","Placebo",0,85,">80",3,"WHITE",1,"F","Y","Y","N","         Week 24",24,167,"2013-07-28",201,"RETRIEVAL","NPI-X Item A (Delusion) Score","NPITM01S",1,"",0,0,0,null,"","Y","","162 - 175",168,1,162,175,"DAYS",3085],["CDISCPILOT01","701","701","01-701-1047","2013-02-12","2013-03-09","Placebo",0,85,">80",3,"WHITE",1,"F","Y","Y","N","        Baseline",0,1,"2013-02-12",3,"BASELINE","NPI-X Item B (Hallucination)  Score","NPITM02S",2,"",0,0,0,null,"Y","Y","","<= 1",1,0,null,1,"DAYS",3004],["CDISCPILOT01","701","701","01-701-1047","2013-02-12","2013-03-09","Placebo",0,85,">80",3,"WHITE",1,"F","Y","Y","N","          Week 2",2,14,"2013-02-25",4,"WEEK 2","NPI-X Item B (Hallucination)  Score","NPITM02S",2,"",0,0,0,null,"","Y","","2 - 21",14,0,2,21,"DAYS",3033],["CDISCPILOT01","701","701","01-701-1047","2013-02-12","2013-03-09","Placebo",0,85,">80",3,"WHITE",1,"F","Y","Y","N","          Week 6",6,46,"2013-03-29",6,"AMBUL ECG REMOVAL","NPI-X Item B (Hallucination)  Score","NPITM02S",2,"",0,0,0,null,"","Y","","36 - 49",42,4,36,49,"DAYS",3060],["CDISCPILOT01","701","701","01-701-1047","2013-02-12","2013-03-09","Placebo",0,85,">80",3,"WHITE",1,"F","Y","Y","N","         Week 24",24,167,"2013-07-28",201,"RETRIEVAL","NPI-X Item B (Hallucination)  Score","NPITM02S",2,"",0,0,0,null,"","Y","","162 - 175",168,1,162,175,"DAYS",3087],["CDISCPILOT01","701","701","01-701-1047","2013-02-12","2013-03-09","Placebo",0,85,">80",3,"WHITE",1,"F","Y","Y","N","        Baseline",0,1,"2013-02-12",3,"BASELINE","NPI-X Item C (Agitation/Agression) Score","NPITM03S",3,"",0,0,0,null,"Y","Y","","<= 1",1,0,null,1,"DAYS",3006],["CDISCPILOT01","701","701","01-701-1047","2013-02-12","2013-03-09","Placebo",0,85,">80",3,"WHITE",1,"F","Y","Y","N","          Week 2",2,14,"2013-02-25",4,"WEEK 2","NPI-X Item C (Agitation/Agression) Score","NPITM03S",3,"",0,0,0,null,"","Y","","2 - 21",14,0,2,21,"DAYS",3035],["CDISCPILOT01","701","701","01-701-1047","2013-02-12","2013-03-09","Placebo",0,85,">80",3,"WHITE",1,"F","Y","Y","N","          Week 6",6,46,"2013-03-29",6,"AMBUL ECG REMOVAL","NPI-X Item C (Agitation/Agression) Score","NPITM03S",3,"",0,0,0,null,"","Y","","36 - 49",42,4,36,49,"DAYS",3062],["CDISCPILOT01","701","701","01-701-1047","2013-02-12","2013-03-09","Placebo",0,85,">80",3,"WHITE",1,"F","Y","Y","N","         Week 24",24,167,"2013-07-28",201,"RETRIEVAL","NPI-X Item C (Agitation/Agression) Score","NPITM03S",3,"",0,0,0,null,"","Y","","162 - 175",168,1,162,175,"DAYS",3089],["CDISCPILOT01","701","701","01-701-1047","2013-02-12","2013-03-09","Placebo",0,85,">80",3,"WHITE",1,"F","Y","Y","N","        Baseline",0,1,"2013-02-12",3,"BASELINE","NPI-X Item D (Depression/Dysphoria) Score","NPITM04S",4,"",0,0,0,null,"Y","Y","","<= 1",1,0,null,1,"DAYS",3008],["CDISCPILOT01","701","701","01-701-1047","2013-02-12","2013-03-09","Placebo",0,85,">80",3,"WHITE",1,"F","Y","Y","N","          Week 2",2,14,"2013-02-25",4,"WEEK 2","NPI-X Item D (Depression/Dysphoria) Score","NPITM04S",4,"",0,0,0,null,"","Y","","2 - 21",14,0,2,21,"DAYS",3037],["CDISCPILOT01","701","701","01-701-1047","2013-02-12","2013-03-09","Placebo",0,85,">80",3,"WHITE",1,"F","Y","Y","N","          Week 6",6,46,"2013-03-29",6,"AMBUL ECG REMOVAL","NPI-X Item D (Depression/Dysphoria) Score","NPITM04S",4,"",0,0,0,null,"","Y","","36 - 49",42,4,36,49,"DAYS",3064],["CDISCPILOT01","701","701","01-701-1047","2013-02-12","2013-03-09","Placebo",0,85,">80",3,"WHITE",1,"F","Y","Y","N","         Week 24",24,167,"2013-07-28",201,"RETRIEVAL","NPI-X Item D (Depression/Dysphoria) Score","NPITM04S",4,"",1,0,1,null,"","Y","","162 - 175",168,1,162,175,"DAYS",3093],["CDISCPILOT01","701","701","01-701-1047","2013-02-12","2013-03-09","Placebo",0,85,">80",3,"WHITE",1,"F","Y","Y","N","        Baseline",0,1,"2013-02-12",3,"BASELINE","NPI-X Item E (Anxiety) Score","NPITM05S",5,"",0,0,0,null,"Y","Y","","<= 1",1,0,null,1,"DAYS",3010],["CDISCPILOT01","701","701","01-701-1047","2013-02-12","2013-03-09","Placebo",0,85,">80",3,"WHITE",1,"F","Y","Y","N","          Week 2",2,14,"2013-02-25",4,"WEEK 2","NPI-X Item E (Anxiety) Score","NPITM05S",5,"",0,0,0,null,"","Y","","2 - 21",14,0,2,21,"DAYS",3039],["CDISCPILOT01","701","701","01-701-1047","2013-02-12","2013-03-09","Placebo",0,85,">80",3,"WHITE",1,"F","Y","Y","N","          Week 6",6,46,"2013-03-29",6,"AMBUL ECG REMOVAL","NPI-X Item E (Anxiety) Score","NPITM05S",5,"",0,0,0,null,"","Y","","36 - 49",42,4,36,49,"DAYS",3066],["CDISCPILOT01","701","701","01-701-1047","2013-02-12","2013-03-09","Placebo",0,85,">80",3,"WHITE",1,"F","Y","Y","N","         Week 24",24,167,"2013-07-28",201,"RETRIEVAL","NPI-X Item E (Anxiety) Score","NPITM05S",5,"",0,0,0,null,"","Y","","162 - 175",168,1,162,175,"DAYS",3095],["CDISCPILOT01","701","701","01-701-1047","2013-02-12","2013-03-09","Placebo",0,85,">80",3,"WHITE",1,"F","Y","Y","N","        Baseline",0,1,"2013-02-12",3,"BASELINE","NPI-X Item F (Eupohoria/Elation) Score","NPITM06S",6,"",0,0,0,null,"Y","Y","","<= 1",1,0,null,1,"DAYS",3012],["CDISCPILOT01","701","701","01-701-1047","2013-02-12","2013-03-09","Placebo",0,85,">80",3,"WHITE",1,"F","Y","Y","N","          Week 2",2,14,"2013-02-25",4,"WEEK 2","NPI-X Item F (Eupohoria/Elation) Score","NPITM06S",6,"",0,0,0,null,"","Y","","2 - 21",14,0,2,21,"DAYS",3041],["CDISCPILOT01","701","701","01-701-1047","2013-02-12","2013-03-09","Placebo",0,85,">80",3,"WHITE",1,"F","Y","Y","N","          Week 6",6,46,"2013-03-29",6,"AMBUL ECG REMOVAL","NPI-X Item F (Eupohoria/Elation) Score","NPITM06S",6,"",0,0,0,null,"","Y","","36 - 49",42,4,36,49,"DAYS",3068],["CDISCPILOT01","701","701","01-701-1047","2013-02-12","2013-03-09","Placebo",0,85,">80",3,"WHITE",1,"F","Y","Y","N","         Week 24",24,167,"2013-07-28",201,"RETRIEVAL","NPI-X Item F (Eupohoria/Elation) Score","NPITM06S",6,"",0,0,0,null,"","Y","","162 - 175",168,1,162,175,"DAYS",3097],["CDISCPILOT01","701","701","01-701-1047","2013-02-12","2013-03-09","Placebo",0,85,">80",3,"WHITE",1,"F","Y","Y","N","        Baseline",0,1,"2013-02-12",3,"BASELINE","NPI-X Item G (Apathy/Indifference) Score","NPITM07S",7,"",0,0,0,null,"Y","Y","","<= 1",1,0,null,1,"DAYS",3014],["CDISCPILOT01","701","701","01-701-1047","2013-02-12","2013-03-09","Placebo",0,85,">80",3,"WHITE",1,"F","Y","Y","N","          Week 2",2,14,"2013-02-25",4,"WEEK 2","NPI-X Item G (Apathy/Indifference) Score","NPITM07S",7,"",0,0,0,null,"","Y","","2 - 21",14,0,2,21,"DAYS",3043],["CDISCPILOT01","701","701","01-701-1047","2013-02-12","2013-03-09","Placebo",0,85,">80",3,"WHITE",1,"F","Y","Y","N","          Week 6",6,46,"2013-03-29",6,"AMBUL ECG REMOVAL","NPI-X Item G (Apathy/Indifference) Score","NPITM07S",7,"",0,0,0,null,"","Y","","36 - 49",42,4,36,49,"DAYS",3070],["CDISCPILOT01","701","701","01-701-1047","2013-02-12","2013-03-09","Placebo",0,85,">80",3,"WHITE",1,"F","Y","Y","N","         Week 24",24,167,"2013-07-28",201,"RETRIEVAL","NPI-X Item G (Apathy/Indifference) Score","NPITM07S",7,"",0,0,0,null,"","Y","","162 - 175",168,1,162,175,"DAYS",3099],["CDISCPILOT01","701","701","01-701-1047","2013-02-12","2013-03-09","Placebo",0,85,">80",3,"WHITE",1,"F","Y","Y","N","        Baseline",0,1,"2013-02-12",3,"BASELINE","NPI-X Item H (Disinhibition) Score","NPITM08S",8,"",1,1,0,0,"Y","Y","","<= 1",1,0,null,1,"DAYS",3018],["CDISCPILOT01","701","701","01-701-1047","2013-02-12","2013-03-09","Placebo",0,85,">80",3,"WHITE",1,"F","Y","Y","N","          Week 2",2,14,"2013-02-25",4,"WEEK 2","NPI-X Item H (Disinhibition) Score","NPITM08S",8,"",1,1,0,0,"","Y","","2 - 21",14,0,2,21,"DAYS",3047],["CDISCPILOT01","701","701","01-701-1047","2013-02-12","2013-03-09","Placebo",0,85,">80",3,"WHITE",1,"F","Y","Y","N","          Week 6",6,46,"2013-03-29",6,"AMBUL ECG REMOVAL","NPI-X Item H (Disinhibition) Score","NPITM08S",8,"",1,1,0,0,"","Y","","36 - 49",42,4,36,49,"DAYS",3074],["CDISCPILOT01","701","701","01-701-1047","2013-02-12","2013-03-09","Placebo",0,85,">80",3,"WHITE",1,"F","Y","Y","N","         Week 24",24,167,"2013-07-28",201,"RETRIEVAL","NPI-X Item H (Disinhibition) Score","NPITM08S",8,"",6,1,5,500,"","Y","","162 - 175",168,1,162,175,"DAYS",3103],["CDISCPILOT01","701","701","01-701-1047","2013-02-12","2013-03-09","Placebo",0,85,">80",3,"WHITE",1,"F","Y","Y","N","        Baseline",0,1,"2013-02-12",3,"BASELINE","NPI-X Item I (Irritability/Lability) Score","NPITM09S",9,"",1,1,0,0,"Y","Y","","<= 1",1,0,null,1,"DAYS",3022],["CDISCPILOT01","701","701","01-701-1047","2013-02-12","2013-03-09","Placebo",0,85,">80",3,"WHITE",1,"F","Y","Y","N","          Week 2",2,14,"2013-02-25",4,"WEEK 2","NPI-X Item I (Irritability/Lability) Score","NPITM09S",9,"",0,1,-1,-100,"","Y","","2 - 21",14,0,2,21,"DAYS",3049],["CDISCPILOT01","701","701","01-701-1047","2013-02-12","2013-03-09","Placebo",0,85,">80",3,"WHITE",1,"F","Y","Y","N","          Week 6",6,46,"2013-03-29",6,"AMBUL ECG REMOVAL","NPI-X Item I (Irritability/Lability) Score","NPITM09S",9,"",0,1,-1,-100,"","Y","","36 - 49",42,4,36,49,"DAYS",3076],["CDISCPILOT01","701","701","01-701-1047","2013-02-12","2013-03-09","Placebo",0,85,">80",3,"WHITE",1,"F","Y","Y","N","         Week 24",24,167,"2013-07-28",201,"RETRIEVAL","NPI-X Item I (Irritability/Lability) Score","NPITM09S",9,"",1,1,0,0,"","Y","","162 - 175",168,1,162,175,"DAYS",3107],["CDISCPILOT01","701","701","01-701-1047","2013-02-12","2013-03-09","Placebo",0,85,">80",3,"WHITE",1,"F","Y","Y","N","        Baseline",0,1,"2013-02-12",3,"BASELINE","NPI-X Item J (Aberrant Motor Behavior) Score","NPITM10S",10,"",0,0,0,null,"Y","Y","","<= 1",1,0,null,1,"DAYS",3024],["CDISCPILOT01","701","701","01-701-1047","2013-02-12","2013-03-09","Placebo",0,85,">80",3,"WHITE",1,"F","Y","Y","N","          Week 2",2,14,"2013-02-25",4,"WEEK 2","NPI-X Item J (Aberrant Motor Behavior) Score","NPITM10S",10,"",0,0,0,null,"","Y","","2 - 21",14,0,2,21,"DAYS",3051],["CDISCPILOT01","701","701","01-701-1047","2013-02-12","2013-03-09","Placebo",0,85,">80",3,"WHITE",1,"F","Y","Y","N","          Week 6",6,46,"2013-03-29",6,"AMBUL ECG REMOVAL","NPI-X Item J (Aberrant Motor Behavior) Score","NPITM10S",10,"",0,0,0,null,"","Y","","36 - 49",42,4,36,49,"DAYS",3078],["CDISCPILOT01","701","701","01-701-1047","2013-02-12","2013-03-09","Placebo",0,85,">80",3,"WHITE",1,"F","Y","Y","N","         Week 24",24,167,"2013-07-28",201,"RETRIEVAL","NPI-X Item J (Aberrant Motor Behavior) Score","NPITM10S",10,"",0,0,0,null,"","Y","","162 - 175",168,1,162,175,"DAYS",3109],["CDISCPILOT01","