{"datasetJSONCreationDateTime":"2024-12-18T15:34:34","datasetJSONVersion":"1.1.0","fileOID":"CDISCPILOT01.advs","dbLastModifiedDateTime":"2012-10-15T22:56:22","originator":"CDISC Data Exchange Standards Team","sourceSystem":{"name":"SAS on X64_10PRO","version":"9.0401M7"},"studyOID":"CDISCPILOT01","metaDataVersionOID":"CDISC.ADaM.2.1","metaDataRef":"define.xml","itemGroupOID":"ADVS","records":32139,"name":"ADVS","label":"Vital Signs Analysis Dataset","columns":[{"itemOID":"ADVS.STUDYID","name":"STUDYID","label":"Study Identifier","dataType":"string","length":12},{"itemOID":"ADVS.SITEID","name":"SITEID","label":"Study Site Identifier","dataType":"string","length":3},{"itemOID":"ADVS.USUBJID","name":"USUBJID","label":"Unique Subject Identifier","dataType":"string","length":11,"keySequence":1},{"itemOID":"ADVS.AGE","name":"AGE","label":"Age","dataType":"integer"},{"itemOID":"ADVS.AGEGR1","name":"AGEGR1","label":"Pooled Age Group 1","dataType":"string","length":5},{"itemOID":"ADVS.AGEGR1N","name":"AGEGR1N","label":"Pooled Age Group 1 (N)","dataType":"integer"},{"itemOID":"ADVS.RACE","name":"RACE","label":"Race","dataType":"string","length":32},{"itemOID":"ADVS.RACEN","name":"RACEN","label":"Race (N)","dataType":"integer"},{"itemOID":"ADVS.SEX","name":"SEX","label":"Sex","dataType":"string","length":1},{"itemOID":"ADVS.SAFFL","name":"SAFFL","label":"Safety Population Flag","dataType":"string","length":1},{"itemOID":"ADVS.TRTSDT","name":"TRTSDT","label":"Date of First Exposure to Treatment","dataType":"date","targetDataType":"integer","displayFormat":"DATE9."},{"itemOID":"ADVS.TRTEDT","name":"TRTEDT","label":"Date of Last Exposure to Treatment","dataType":"date","targetDataType":"integer","displayFormat":"DATE9."},{"itemOID":"ADVS.TRTP","name":"TRTP","label":"Planned Treatment","dataType":"string","length":20},{"itemOID":"ADVS.TRTPN","name":"TRTPN","label":"Planned Treatment (N)","dataType":"integer"},{"itemOID":"ADVS.TRTA","name":"TRTA","label":"Actual Treatment","dataType":"string","length":20},{"itemOID":"ADVS.TRTAN","name":"TRTAN","label":"Actual Treatment (N)","dataType":"integer"},{"itemOID":"ADVS.PARAMCD","name":"PARAMCD","label":"Parameter Code","dataType":"string","length":8,"keySequence":2},{"itemOID":"ADVS.PARAM","name":"PARAM","label":"Parameter","dataType":"string","length":100},{"itemOID":"ADVS.PARAMN","name":"PARAMN","label":"Parameter Number","dataType":"integer"},{"itemOID":"ADVS.ADT","name":"ADT","label":"Analysis Date","dataType":"date","targetDataType":"integer","displayFormat":"DATE9."},{"itemOID":"ADVS.ADY","name":"ADY","label":"Analysis Relative Day","dataType":"integer"},{"itemOID":"ADVS.ATPTN","name":"ATPTN","label":"Analysis Timepoint (N)","dataType":"integer"},{"itemOID":"ADVS.ATPT","name":"ATPT","label":"Analysis Timepoint","dataType":"string","length":30,"keySequence":4},{"itemOID":"ADVS.AVISIT","name":"AVISIT","label":"Analysis Visit","dataType":"string","length":16,"keySequence":3},{"itemOID":"ADVS.AVISITN","name":"AVISITN","label":"Analysis Visit (N)","dataType":"integer"},{"itemOID":"ADVS.AVAL","name":"AVAL","label":"Analysis Value","dataType":"float"},{"itemOID":"ADVS.BASE","name":"BASE","label":"Baseline Value","dataType":"float"},{"itemOID":"ADVS.CHG","name":"CHG","label":"Change from Baseline","dataType":"float"},{"itemOID":"ADVS.PCHG","name":"PCHG","label":"Percent Change from Baseline","dataType":"float"},{"itemOID":"ADVS.VISITNUM","name":"VISITNUM","label":"Visit Number","dataType":"decimal"},{"itemOID":"ADVS.VISIT","name":"VISIT","label":"Visit Name","dataType":"string","length":19},{"itemOID":"ADVS.VSSEQ","name":"VSSEQ","label":"Sequence Number","dataType":"integer"},{"itemOID":"ADVS.ANL01FL","name":"ANL01FL","label":"Analysis Record Flag 01","dataType":"string","length":1},{"itemOID":"ADVS.ABLFL","name":"ABLFL","label":"Baseline Record Flag","dataType":"string","length":1}],"rows":[["CDISCPILOT01","701","01-701-1015",63,"<65",1,"WHITE",1,"F","Y","2014-01-02","2014-07-02","Placebo",0,"Placebo",0,"DIABP","Diastolic Blood Pressure (mmHg)",2,"2013-12-26",-7,815,"AFTER LYING DOWN FOR 5 MINUTES","",null,64,56,8,14.2857142857,1,"SCREENING 1",1,"",""],["CDISCPILOT01","701","01-701-1015",63,"<65",1,"WHITE",1,"F","Y","2014-01-02","2014-07-02","Placebo",0,"Placebo",0,"DIABP","Diastolic Blood Pressure (mmHg)",2,"2013-12-31",-2,815,"AFTER LYING DOWN FOR 5 MINUTES","",null,68,56,12,21.4285714286,2,"SCREENING 2",4,"",""],["CDISCPILOT01","701","01-701-1015",63,"<65",1,"WHITE",1,"F","Y","2014-01-02","2014-07-02","Placebo",0,"Placebo",0,"DIABP","Diastolic Blood Pressure (mmHg)",2,"2014-01-02",1,815,"AFTER LYING DOWN FOR 5 MINUTES","Baseline",0,56,56,0,0,3,"BASELINE",7,"Y","Y"],["CDISCPILOT01","701","01-701-1015",63,"<65",1,"WHITE",1,"F","Y","2014-01-02","2014-07-02","Placebo",0,"Placebo",0,"DIABP","Diastolic Blood Pressure (mmHg)",2,"2014-01-14",13,815,"AFTER LYING DOWN FOR 5 MINUTES","",null,67,56,11,19.6428571429,3.5,"AMBUL ECG PLACEMENT",10,"",""],["CDISCPILOT01","701","01-701-1015",63,"<65",1,"WHITE",1,"F","Y","2014-01-02","2014-07-02","Placebo",0,"Placebo",0,"DIABP","Diastolic Blood Pressure (mmHg)",2,"2014-01-16",15,815,"AFTER LYING DOWN FOR 5 MINUTES","Week 2",2,56,56,0,0,4,"WEEK 2",13,"Y",""],["CDISCPILOT01","701","01-701-1015",63,"<65",1,"WHITE",1,"F","Y","2014-01-02","2014-07-02","Placebo",0,"Placebo",0,"DIABP","Diastolic Blood Pressure (mmHg)",2,"2014-01-30",29,815,"AFTER LYING DOWN FOR 5 MINUTES","Week 4",4,64,56,8,14.2857142857,5,"WEEK 4",16,"Y",""],["CDISCPILOT01","701","01-701-1015",63,"<65",1,"WHITE",1,"F","Y","2014-01-02","2014-07-02","Placebo",0,"Placebo",0,"DIABP","Diastolic Blood Pressure (mmHg)",2,"2014-02-01",31,815,"AFTER LYING DOWN FOR 5 MINUTES","",null,72,56,16,28.5714285714,6,"AMBUL ECG REMOVAL",19,"",""],["CDISCPILOT01","701","01-701-1015",63,"<65",1,"WHITE",1,"F","Y","2014-01-02","2014-07-02","Placebo",0,"Placebo",0,"DIABP","Diastolic Blood Pressure (mmHg)",2,"2014-02-12",42,815,"AFTER LYING DOWN FOR 5 MINUTES","Week 6",6,55,56,-1,-1.78571428571,7,"WEEK 6",22,"Y",""],["CDISCPILOT01","701","01-701-1015",63,"<65",1,"WHITE",1,"F","Y","2014-01-02","2014-07-02","Placebo",0,"Placebo",0,"DIABP","Diastolic Blood Pressure (mmHg)",2,"2014-03-05",63,815,"AFTER LYING DOWN FOR 5 MINUTES","Week 8",8,67,56,11,19.6428571429,8,"WEEK 8",25,"Y",""],["CDISCPILOT01","701","01-701-1015",63,"<65",1,"WHITE",1,"F","Y","2014-01-02","2014-07-02","Placebo",0,"Placebo",0,"DIABP","Diastolic Blood Pressure (mmHg)",2,"2014-03-26",84,815,"AFTER LYING DOWN FOR 5 MINUTES","Week 12",12,68,56,12,21.4285714286,9,"WEEK 12",28,"Y",""],["CDISCPILOT01","701","01-701-1015",63,"<65",1,"WHITE",1,"F","Y","2014-01-02","2014-07-02","Placebo",0,"Placebo",0,"DIABP","Diastolic Blood Pressure (mmHg)",2,"2014-05-07",126,815,"AFTER LYING DOWN FOR 5 MINUTES","Week 16",16,66,56,10,17.8571428571,10,"WEEK 16",31,"Y",""],["CDISCPILOT01","701","01-701-1015",63,"<65",1,"WHITE",1,"F","Y","2014-01-02","2014-07-02","Placebo",0,"Placebo",0,"DIABP","Diastolic Blood Pressure (mmHg)",2,"2014-05-21",140,815,"AFTER LYING DOWN FOR 5 MINUTES","Week 20",20,67,56,11,19.6428571429,11,"WEEK 20",34,"Y",""],["CDISCPILOT01","701","01-701-1015",63,"<65",1,"WHITE",1,"F","Y","2014-01-02","2014-07-02","Placebo",0,"Placebo",0,"DIABP","Diastolic Blood Pressure (mmHg)",2,"2014-06-18",168,815,"AFTER LYING DOWN FOR 5 MINUTES","Week 24",24,63,56,7,12.5,12,"WEEK 24",37,"Y",""],["CDISCPILOT01","701","01-701-1015",63,"<65",1,"WHITE",1,"F","Y","2014-01-02","2014-07-02","Placebo",0,"Placebo",0,"DIABP","Diastolic Blood Pressure (mmHg)",2,"2014-07-02",182,815,"AFTER LYING DOWN FOR 5 MINUTES","Week 26",26,61,56,5,8.92857142857,13,"WEEK 26",40,"Y",""],["CDISCPILOT01","701","01-701-1015",63,"<65",1,"WHITE",1,"F","Y","2014-01-02","2014-07-02","Placebo",0,"Placebo",0,"DIABP","Diastolic Blood Pressure (mmHg)",2,"2014-07-02",182,815,"AFTER LYING DOWN FOR 5 MINUTES","End of Treatment",99,61,56,5,8.92857142857,13,"WEEK 26",40,"Y",""],["CDISCPILOT01","701","01-701-1015",63,"<65",1,"WHITE",1,"F","Y","2014-01-02","2014-07-02","Placebo",0,"Placebo",0,"DIABP","Diastolic Blood Pressure (mmHg)",2,"2013-12-26",-7,816,"AFTER STANDING FOR 1 MINUTE","",null,83,51,32,62.7450980392,1,"SCREENING 1",2,"",""],["CDISCPILOT01","701","01-701-1015",63,"<65",1,"WHITE",1,"F","Y","2014-01-02","2014-07-02","Placebo",0,"Placebo",0,"DIABP","Diastolic Blood Pressure (mmHg)",2,"2013-12-31",-2,816,"AFTER STANDING FOR 1 MINUTE","",null,59,51,8,15.6862745098,2,"SCREENING 2",5,"",""],["CDISCPILOT01","701","01-701-1015",63,"<65",1,"WHITE",1,"F","Y","2014-01-02","2014-07-02","Placebo",0,"Placebo",0,"DIABP","Diastolic Blood Pressure (mmHg)",2,"2014-01-02",1,816,"AFTER STANDING FOR 1 MINUTE","Baseline",0,51,51,0,0,3,"BASELINE",8,"Y","Y"],["CDISCPILOT01","701","01-701-1015",63,"<65",1,"WHITE",1,"F","Y","2014-01-02","2014-07-02","Placebo",0,"Placebo",0,"DIABP","Diastolic Blood Pressure (mmHg)",2,"2014-01-14",13,816,"AFTER STANDING FOR 1 MINUTE","",null,61,51,10,19.6078431373,3.5,"AMBUL ECG PLACEMENT",11,"",""],["CDISCPILOT01","701","01-701-1015",63,"<65",1,"WHITE",1,"F","Y","2014-01-02","2014-07-02","Placebo",0,"Placebo",0,"DIABP","Diastolic Blood Pressure (mmHg)",2,"2014-01-16",15,816,"AFTER STANDING FOR 1 MINUTE","Week 2",2,50,51,-1,-1.96078431373,4,"WEEK 2",14,"Y",""],["CDISCPILOT01","701","01-701-1015",63,"<65",1,"WHITE",1,"F","Y","2014-01-02","2014-07-02","Placebo",0,"Placebo",0,"DIABP","Diastolic Blood Pressure (mmHg)",2,"2014-01-30",29,816,"AFTER STANDING FOR 1 MINUTE","Week 4",4,55,51,4,7.8431372549,5,"WEEK 4",17,"Y",""],["CDISCPILOT01","701","01-701-1015",63,"<65",1,"WHITE",1,"F","Y","2014-01-02","2014-07-02","Placebo",0,"Placebo",0,"DIABP","Diastolic Blood Pressure (mmHg)",2,"2014-02-01",31,816,"AFTER STANDING FOR 1 MINUTE","",null,61,51,10,19.6078431373,6,"AMBUL ECG REMOVAL",20,"",""],["CDISCPILOT01","701","01-701-1015",63,"<65",1,"WHITE",1,"F","Y","2014-01-02","2014-07-02","Placebo",0,"Placebo",0,"DIABP","Diastolic Blood Pressure (mmHg)",2,"2014-02-12",42,816,"AFTER STANDING FOR 1 MINUTE","Week 6",6,63,51,12,23.5294117647,7,"WEEK 6",23,"Y",""],["CDISCPILOT01","701","01-701-1015",63,"<65",1,"WHITE",1,"F","Y","2014-01-02","2014-07-02","Placebo",0,"Placebo",0,"DIABP","Diastolic Blood Pressure (mmHg)",2,"2014-03-05",63,816,"AFTER STANDING FOR 1 MINUTE","Week 8",8,62,51,11,21.568627451,8,"WEEK 8",26,"Y",""],["CDISCPILOT01","701","01-701-1015",63,"<65",1,"WHITE",1,"F","Y","2014-01-02","2014-07-02","Placebo",0,"Placebo",0,"DIABP","Diastolic Blood Pressure (mmHg)",2,"2014-03-26",84,816,"AFTER STANDING FOR 1 MINUTE","Week 12",12,60,51,9,17.6470588235,9,"WEEK 12",29,"Y",""],["CDISCPILOT01","701","01-701-1015",63,"<65",1,"WHITE",1,"F","Y","2014-01-02","2014-07-02","Placebo",0,"Placebo",0,"DIABP","Diastolic Blood Pressure (mmHg)",2,"2014-05-07",126,816,"AFTER STANDING FOR 1 MINUTE","Week 16",16,68,51,17,33.3333333333,10,"WEEK 16",32,"Y",""],["CDISCPILOT01","701","01-701-1015",63,"<65",1,"WHITE",1,"F","Y","2014-01-02","2014-07-02","Placebo",0,"Placebo",0,"DIABP","Diastolic Blood Pressure (mmHg)",2,"2014-05-21",140,816,"AFTER STANDING FOR 1 MINUTE","Week 20",20,65,51,14,27.4509803922,11,"WEEK 20",35,"Y",""],["CDISCPILOT01","701","01-701-1015",63,"<65",1,"WHITE",1,"F","Y","2014-01-02","2014-07-02","Placebo",0,"Placebo",0,"DIABP","Diastolic Blood Pressure (mmHg)",2,"2014-06-18",168,816,"AFTER STANDING FOR 1 MINUTE","Week 24",24,57,51,6,11.7647058824,12,"WEEK 24",38,"Y",""],["CDISCPILOT01","701","01-701-1015",63,"<65",1,"WHITE",1,"F","Y","2014-01-02","2014-07-02","Placebo",0,"Placebo",0,"DIABP","Diastolic Blood Pressure (mmHg)",2,"2014-07-02",182,816,"AFTER STANDING FOR 1 MINUTE","Week 26",26,59,51,8,15.6862745098,13,"WEEK 26",41,"Y",""],["CDISCPILOT01","701","01-701-1015",63,"<65",1,"WHITE",1,"F","Y","2014-01-02","2014-07-02","Placebo",0,"Placebo",0,"DIABP","Diastolic Blood Pressure (mmHg)",2,"2014-07-02",182,816,"AFTER STANDING FOR 1 MINUTE","End of Treatment",99,59,51,8,15.6862745098,13,"WEEK 26",41,"Y",""],["CDISCPILOT01","701","01-701-1015",63,"<65",1,"WHITE",1,"F","Y","2014-01-02","2014-07-02","Placebo",0,"Placebo",0,"DIABP","Diastolic Blood Pressure (mmHg)",2,"2013-12-26",-7,817,"AFTER STANDING FOR 3 MINUTES","",null,57,61,-4,-6.55737704918,1,"SCREENING 1",3,"",""],["CDISCPILOT01","701","01-701-1015",63,"<65",1,"WHITE",1,"F","Y","2014-01-02","2014-07-02","Placebo",0,"Placebo",0,"DIABP","Diastolic Blood Pressure (mmHg)",2,"2013-12-31",-2,817,"AFTER STANDING FOR 3 MINUTES","",null,71,61,10,16.393442623,2,"SCREENING 2",6,"",""],["CDISCPILOT01","701","01-701-1015",63,"<65",1,"WHITE",1,"F","Y","2014-01-02","2014-07-02","Placebo",0,"Placebo",0,"DIABP","Diastolic Blood Pressure (mmHg)",2,"2014-01-02",1,817,"AFTER STANDING FOR 3 MINUTES","Baseline",0,61,61,0,0,3,"BASELINE",9,"Y","Y"],["CDISCPILOT01","701","01-701-1015",63,"<65",1,"WHITE",1,"F","Y","2014-01-02","2014-07-02","Placebo",0,"Placebo",0,"DIABP","Diastolic Blood Pressure (mmHg)",2,"2014-01-14",13,817,"AFTER STANDING FOR 3 MINUTES","",null,65,61,4,6.55737704918,3.5,"AMBUL ECG PLACEMENT",12,"",""],["CDISCPILOT01","701","01-701-1015",63,"<65",1,"WHITE",1,"F","Y","2014-01-02","2014-07-02","Placebo",0,"Placebo",0,"DIABP","Diastolic Blood Pressure (mmHg)",2,"2014-01-16",15,817,"AFTER STANDING FOR 3 MINUTES","Week 2",2,54,61,-7,-11.4754098361,4,"WEEK 2",15,"Y",""],["CDISCPILOT01","701","01-701-1015",63,"<65",1,"WHITE",1,"F","Y","2014-01-02","2014-07-02","Placebo",0,"Placebo",0,"DIABP","Diastolic Blood Pressure (mmHg)",2,"2014-01-30",29,817,"AFTER STANDING FOR 3 MINUTES","Week 4",4,53,61,-8,-13.1147540984,5,"WEEK 4",18,"Y",""],["CDISCPILOT01","701","01-701-1015",63,"<65",1,"WHITE",1,"F","Y","2014-01-02","2014-07-02","Placebo",0,"Placebo",0,"DIABP","Diastolic Blood Pressure (mmHg)",2,"2014-02-01",31,817,"AFTER STANDING FOR 3 MINUTES","",null,53,61,-8,-13.1147540984,6,"AMBUL ECG REMOVAL",21,"",""],["CDISCPILOT01","701","01-701-1015",63,"<65",1,"WHITE",1,"F","Y","2014-01-02","2014-07-02","Placebo",0,"Placebo",0,"DIABP","Diastolic Blood Pressure (mmHg)",2,"2014-02-12",42,817,"AFTER STANDING FOR 3 MINUTES","Week 6",6,60,61,-1,-1.6393442623,7,"WEEK 6",24,"Y",""],["CDISCPILOT01","701","01-701-1015",63,"<65",1,"WHITE",1,"F","Y","2014-01-02","2014-07-02","Placebo",0,"Placebo",0,"DIABP","Diastolic Blood Pressure (mmHg)",2,"2014-03-05",63,817,"AFTER STANDING FOR 3 MINUTES","Week 8",8,71,61,10,16.393442623,8,"WEEK 8",27,"Y",""],["CDISCPILOT01","701","01-701-1015",63,"<65",1,"WHITE",1,"F","Y","2014-01-02","2014-07-02","Placebo",0,"Placebo",0,"DIABP","Diastolic Blood Pressure (mmHg)",2,"2014-03-26",84,817,"AFTER STANDING FOR 3 MINUTES","Week 12",12,64,61,3,4.91803278689,9,"WEEK 12",30,"Y",""],["CDISCPILOT01","701","01-701-1015",63,"<65",1,"WHITE",1,"F","Y","2014-01-02","2014-07-02","Placebo",0,"Placebo",0,"DIABP","Diastolic Blood Pressure (mmHg)",2,"2014-05-07",126,817,"AFTER STANDING FOR 3 MINUTES","Week 16",16,66,61,5,8.19672131148,10,"WEEK 16",33,"Y",""],["CDISCPILOT01","701","01-701-1015",63,"<65",1,"WHITE",1,"F","Y","2014-01-02","2014-07-02","Placebo",0,"Placebo",0,"DIABP","Diastolic Blood Pressure (mmHg)",2,"2014-05-21",140,817,"AFTER STANDING FOR 3 MINUTES","Week 20",20,63,61,2,3.27868852459,11,"WEEK 20",36,"Y",""],["CDISCPILOT01","701","01-701-1015",63,"<65",1,"WHITE",1,"F","Y","2014-01-02","2014-07-02","Placebo",0,"Placebo",0,"DIABP","Diastolic Blood Pressure (mmHg)",2,"2014-06-18",168,817,"AFTER STANDING FOR 3 MINUTES","Week 24",24,71,61,10,16.393442623,12,"WEEK 24",39,"Y",""],["CDISCPILOT01","701","01-701-1015",63,"<65",1,"WHITE",1,"F","Y","2014-01-02","2014-07-02","Placebo",0,"Placebo",0,"DIABP","Diastolic Blood Pressure (mmHg)",2,"2014-07-02",182,817,"AFTER STANDING FOR 3 MINUTES","Week 26",26,55,61,-6,-9.83606557377,13,"WEEK 26",42,"Y",""],["CDISCPILOT01","701","01-701-1015",63,"<65",1,"WHITE",1,"F","Y","2014-01-02","2014-07-02","Placebo",0,"Placebo",0,"DIABP","Diastolic Blood Pressure (mmHg)",2,"2014-07-02",182,817,"AFTER STANDING FOR 3 MINUTES","End of Treatment",99,55,61,-6,-9.83606557377,13,"WEEK 26",42,"Y",""],["CDISCPILOT01","701","01-701-1015",63,"<65",1,"WHITE",1,"F","Y","2014-01-02","2014-07-02","Placebo",0,"Placebo",0,"HEIGHT","Height (cm)",5,"2013-12-26",-7,null,"","",null,147.32,null,null,null,1,"SCREENING 1",43,"",""],["CDISCPILOT01","701","01-701-1015",63,"<65",1,"WHITE",1,"F","Y","2014-01-02","2014-07-02","Placebo",0,"Placebo",0,"PULSE","Pulse Rate (BEATS/MIN)",3,"2013-12-26",-7,815,"AFTER LYING DOWN FOR 5 MINUTES","",null,57,56,1,1.78571428571,1,"SCREENING 1",44,"",""],["CDISCPILOT01","701","01-701-1015",63,"<65",1,"WHITE",1,"F","Y","2014-01-02","2014-07-02","Placebo",0,"Placebo",0,"PULSE","Pulse Rate (BEATS/MIN)",3,"2013-12-31",-2,815,"AFTER LYING DOWN FOR 5 MINUTES","",null,56,56,0,0,2,"SCREENING 2",47,"",""],["CDISCPILOT01","701","01-701-1015",63,"<65",1,"WHITE",1,"F","Y","2014-01-02","2014-07-02","Placebo",0,"Placebo",0,"PULSE","Pulse Rate (BEATS/MIN)",3,"2014-01-02",1,815,"AFTER LYING DOWN FOR 5 MINUTES","Baseline",0,56,56,0,0,3,"BASELINE",50,"Y","Y"],["CDISCPILOT01","701","01-701-1015",63,"<65",1,"WHITE",1,"F","Y","2014-01-02","2014-07-02","Placebo",0,"Placebo",0,"PULSE","Pulse Rate (BEATS/MIN)",3,"2014-01-14",13,815,"AFTER LYING DOWN FOR 5 MINUTES","",null,61,56,5,8.92857142857,3.5,"AMBUL ECG PLACEMENT",53,"",""],["CDISCPILOT01","701","01-701-1015",63,"<65",1,"WHITE",1,"F","Y","2014-01-02","2014-07-02","Placebo",0,"Placebo",0,"PULSE","Pulse Rate (BEATS/MIN)",3,"2014-01-16",15,815,"AFTER LYING DOWN FOR 5 MINUTES","Week 2",2,58,56,2,3.57142857143,4,"WEEK 2",56,"Y",""],["CDISCPILOT01","701","01-701-1015",63,"<65",1,"WHITE",1,"F","Y","2014-01-02","2014-07-02","Placebo",0,"Placebo",0,"PULSE","Pulse Rate (BEATS/MIN)",3,"2014-01-30",29,815,"AFTER LYING DOWN FOR 5 MINUTES","Week 4",4,59,56,3,5.35714285714,5,"WEEK 4",59,"Y",""],["CDISCPILOT01","701","01-701-1015",63,"<65",1,"WHITE",1,"F","Y","2014-01-02","2014-07-02","Placebo",0,"Placebo",0,"PULSE","Pulse Rate (BEATS/MIN)",3,"2014-02-01",31,815,"AFTER LYING DOWN FOR 5 MINUTES","",null,67,56,11,19.6428571429,6,"AMBUL ECG REMOVAL",62,"",""],["CDISCPILOT01","701","01-701-1015",63,"<65",1,"WHITE",1,"F","Y","2014-01-02","2014-07-02","Placebo",0,"Placebo",0,"PULSE","Pulse Rate (BEATS/MIN)",3,"2014-02-12",42,815,"AFTER LYING DOWN FOR 5 MINUTES","Week 6",6,55,56,-1,-1.78571428571,7,"WEEK 6",65,"Y",""],["CDISCPILOT01","701","01-701-1015",63,"<65",1,"WHITE",1,"F","Y","2014-01-02","2014-07-02","Placebo",0,"Placebo",0,"PULSE","Pulse Rate (BEATS/MIN)",3,"2014-03-05",63,815,"AFTER LYING DOWN FOR 5 MINUTES","Week 8",8,57,56,1,1.78571428571,8,"WEEK 8",68,"Y",""],["CDISCPILOT01","701","01-701-1015",63,"<65",1,"WHITE",1,"F","Y","2014-01-02","2014-07-02","Placebo",0,"Placebo",0,"PULSE","Pulse Rate (BEATS/MIN)",3,"2014-03-26",84,815,"AFTER LYING DOWN FOR 5 MINUTES","Week 12",12,54,56,-2,-3.57142857143,9,"WEEK 12",71,"Y",""],["CDISCPILOT01","701","01-701-1015",63,"<65",1,"WHITE",1,"F","Y","2014-01-02","2014-07-02","Placebo",0,"Placebo",0,"PULSE","Pulse Rate (BEATS/MIN)",3,"2014-05-07",126,815,"AFTER LYING DOWN FOR 5 MINUTES","Week 16",16,60,56,4,7.14285714286,10,"WEEK 16",74,"Y",""],["CDISCPILOT01","701","01-701-1015",63,"<65",1,"WHITE",1,"F","Y","2014-01-02","2014-07-02","Placebo",0,"Placebo",0,"PULSE","Pulse Rate (BEATS/MIN)",3,"2014-05-21",140,815,"AFTER LYING DOWN FOR 5 MINUTES","Week 20",20,54,56,-2,-3.57142857143,11,"WEEK 20",77,"Y",""],["CDISCPILOT01","701","01-701-1015",63,"<65",1,"WHITE",1,"F","Y","2014-01-02","2014-07-02","Placebo",0,"Placebo",0,"PULSE","Pulse Rate (BEATS/MIN)",3,"2014-06-18",168,815,"AFTER LYING DOWN FOR 5 MINUTES","Week 24",24,55,56,-1,-1.78571428571,12,"WEEK 24",80,"Y",""],["CDISCPILOT01","701","01-701-1015",63,"<65",1,"WHITE",1,"F","Y","2014-01-02","2014-07-02","Placebo",0,"Placebo",0,"PULSE","Pulse Rate (BEATS/MIN)",3,"2014-07-02",182,815,"AFTER LYING DOWN FOR 5 MINUTES","Week 26",26,60,56,4,7.14285714286,13,"WEEK 26",83,"Y",""],["CDISCPILOT01","701","01-701-1015",63,"<65",1,"WHITE",1,"F","Y","2014-01-02","2014-07-02","Placebo",0,"Placebo",0,"PULSE","Pulse Rate (BEATS/MIN)",3,"2014-07-02",182,815,"AFTER LYING DOWN FOR 5 MINUTES","End of Treatment",99,60,56,4,7.14285714286,13,"WEEK 26",83,"Y",""],["CDISCPILOT01","701","01-701-1015",63,"<65",1,"WHITE",1,"F","Y","2014-01-02","2014-07-02","Placebo",0,"Placebo",0,"PULSE","Pulse Rate (BEATS/MIN)",3,"2013-12-26",-7,816,"AFTER STANDING FOR 1 MINUTE","",null,62,59,3,5.08474576271,1,"SCREENING 1",45,"",""],["CDISCPILOT01","701","01-701-1015",63,"<65",1,"WHITE",1,"F","Y","2014-01-02","2014-07-02","Placebo",0,"Placebo",0,"PULSE","Pulse Rate (BEATS/MIN)",3,"2013-12-31",-2,816,"AFTER STANDING FOR 1 MINUTE","",null,60,59,1,1.69491525424,2,"SCREENING 2",48,"",""],["CDISCPILOT01","701","01-701-1015",63,"<65",1,"WHITE",1,"F","Y","2014-01-02","2014-07-02","Placebo",0,"Placebo",0,"PULSE","Pulse Rate (BEATS/MIN)",3,"2014-01-02",1,816,"AFTER STANDING FOR 1 MINUTE","Baseline",0,59,59,0,0,3,"BASELINE",51,"Y","Y"],["CDISCPILOT01","701","01-701-1015",63,"<65",1,"WHITE",1,"F","Y","2014-01-02","2014-07-02","Placebo",0,"Placebo",0,"PULSE","Pulse Rate (BEATS/MIN)",3,"2014-01-14",13,816,"AFTER STANDING FOR 1 MINUTE","",null,65,59,6,10.1694915254,3.5,"AMBUL ECG PLACEMENT",54,"",""],["CDISCPILOT01","701","01-701-1015",63,"<65",1,"WHITE",1,"F","Y","2014-01-02","2014-07-02","Placebo",0,"Placebo",0,"PULSE","Pulse Rate (BEATS/MIN)",3,"2014-01-16",15,816,"AFTER STANDING FOR 1 MINUTE","Week 2",2,61,59,2,3.38983050847,4,"WEEK 2",57,"Y",""],["CDISCPILOT01","701","01-701-1015",63,"<65",1,"WHITE",1,"F","Y","2014-01-02","2014-07-02","Placebo",0,"Placebo",0,"PULSE","Pulse Rate (BEATS/MIN)",3,"2014-01-30",29,816,"AFTER STANDING FOR 1 MINUTE","Week 4",4,62,59,3,5.08474576271,5,"WEEK 4",60,"Y",""],["CDISCPILOT01","701","01-701-1015",63,"<65",1,"WHITE",1,"F","Y","2014-01-02","2014-07-02","Placebo",0,"Placebo",0,"PULSE","Pulse Rate (BEATS/MIN)",3,"2014-02-01",31,816,"AFTER STANDING FOR 1 MINUTE","",null,69,59,10,16.9491525424,6,"AMBUL ECG REMOVAL",63,"",""],["CDISCPILOT01","701","01-701-1015",63,"<65",1,"WHITE",1,"F","Y","2014-01-02","2014-07-02","Placebo",0,"Placebo",0,"PULSE","Pulse Rate (BEATS/MIN)",3,"2014-02-12",42,816,"AFTER STANDING FOR 1 MINUTE","Week 6",6,56,59,-3,-5.08474576271,7,"WEEK 6",66,"Y",""],["CDISCPILOT01","701","01-701-1015",63,"<65",1,"WHITE",1,"F","Y","2014-01-02","2014-07-02","Placebo",0,"Placebo",0,"PULSE","Pulse Rate (BEATS/MIN)",3,"2014-03-05",63,816,"AFTER STANDING FOR 1 MINUTE","Week 8",8,60,59,1,1.69491525424,8,"WEEK 8",69,"Y",""],["CDISCPILOT01","701","01-701-1015",63,"<65",1,"WHITE",1,"F","Y","2014-01-02","2014-07-02","Placebo",0,"Placebo",0,"PULSE","Pulse Rate (BEATS/MIN)",3,"2014-03-26",84,816,"AFTER STANDING FOR 1 MINUTE","Week 12",12,53,59,-6,-10.1694915254,9,"WEEK 12",72,"Y",""],["CDISCPILOT01","701","01-701-1015",63,"<65",1,"WHITE",1,"F","Y","2014-01-02","2014-07-02","Placebo",0,"Placebo",0,"PULSE","Pulse Rate (BEATS/MIN)",3,"2014-05-07",126,816,"AFTER STANDING FOR 1 MINUTE","Week 16",16,55,59,-4,-6.77966101695,10,"WEEK 16",75,"Y",""],["CDISCPILOT01","701","01-701-1015",63,"<65",1,"WHITE",1,"F","Y","2014-01-02","2014-07-02","Placebo",0,"Placebo",0,"PULSE","Pulse Rate (BEATS/MIN)",3,"2014-05-21",140,816,"AFTER STANDING FOR 1 MINUTE","Week 20",20,59,59,0,0,11,"WEEK 20",78,"Y",""],["CDISCPILOT01","701","01-701-1015",63,"<65",1,"WHITE",1,"F","Y","2014-01-02","2014-07-02","Placebo",0,"Placebo",0,"PULSE","Pulse Rate (BEATS/MIN)",3,"2014-06-18",168,816,"AFTER STANDING FOR 1 MINUTE","Week 24",24,57,59,-2,-3.38983050847,12,"WEEK 24",81,"Y",""],["CDISCPILOT01","701","01-701-1015",63,"<65",1,"WHITE",1,"F","Y","2014-01-02","2014-07-02","Placebo",0,"Placebo",0,"PULSE","Pulse Rate (BEATS/MIN)",3,"2014-07-02",182,816,"AFTER STANDING FOR 1 MINUTE","Week 26",26,61,59,2,3.38983050847,13,"WEEK 26",84,"Y",""],["CDISCPILOT01","701","01-701-1015",63,"<65",1,"WHITE",1,"F","Y","2014-01-02","2014-07-02","Placebo",0,"Placebo",0,"PULSE","Pulse Rate (BEATS/MIN)",3,"2014-07-02",182,816,"AFTER STANDING FOR 1 MINUTE","End of Treatment",99,61,59,2,3.38983050847,13,"WEEK 26",84,"Y",""],["CDISCPILOT01","701","01-701-1015",63,"<65",1,"WHITE",1,"F","Y","2014-01-02","2014-07-02","Placebo",0,"Placebo",0,"PULSE","Pulse Rate (BEATS/MIN)",3,"2013-12-26",-7,817,"AFTER STANDING FOR 3 MINUTES","",null,65,59,6,10.1694915254,1,"SCREENING 1",46,"",""],["CDISCPILOT01","701","01-701-1015",63,"<65",1,"WHITE",1,"F","Y","2014-01-02","2014-07-02","Placebo",0,"Placebo",0,"PULSE","Pulse Rate (BEATS/MIN)",3,"2013-12-31",-2,817,"AFTER STANDING FOR 3 MINUTES","",null,57,59,-2,-3.38983050847,2,"SCREENING 2",49,"",""],["CDISCPILOT01","701","01-701-1015",63,"<65",1,"WHITE",1,"F","Y","2014-01-02","2014-07-02","Placebo",0,"Placebo",0,"PULSE","Pulse Rate (BEATS/MIN)",3,"2014-01-02",1,817,"AFTER STANDING FOR 3 MINUTES","Baseline",0,59,59,0,0,3,"BASELINE",52,"Y","Y"],["CDISCPILOT01","701","01-701-1015",63,"<65",1,"WHITE",1,"F","Y","2014-01-02","2014-07-02","Placebo",0,"Placebo",0,"PULSE","Pulse Rate (BEATS/MIN)",3,"2014-01-14",13,817,"AFTER STANDING FOR 3 MINUTES","",null,61,59,2,3.38983050847,3.5,"AMBUL ECG PLACEMENT",55,"",""],["CDISCPILOT01","701","01-701-1015",63,"<65",1,"WHITE",1,"F","Y","2014-01-02","2014-07-02","Placebo",0,"Placebo",0,"PULSE","Pulse Rate (BEATS/MIN)",3,"2014-01-16",15,817,"AFTER STANDING FOR 3 MINUTES","Week 2",2,62,59,3,5.08474576271,4,"WEEK 2",58,"Y",""],["CDISCPILOT01","701","01-701-1015",63,"<65",1,"WHITE",1,"F","Y","2014-01-02","2014-07-02","Placebo",0,"Placebo",0,"PULSE","Pulse Rate (BEATS/MIN)",3,"2014-01-30",29,817,"AFTER STANDING FOR 3 MINUTES","Week 4",4,59,59,0,0,5,"WEEK 4",61,"Y",""],["CDISCPILOT01","701","01-701-1015",63,"<65",1,"WHITE",1,"F","Y","2014-01-02","2014-07-02","Placebo",0,"Placebo",0,"PULSE","Pulse Rate (BEATS/MIN)",3,"2014-02-01",31,817,"AFTER STANDING FOR 3 MINUTES","",null,65,59,6,10.1694915254,6,"AMBUL ECG REMOVAL",64,"",""],["CDISCPILOT01","701","01-701-1015",63,"<65",1,"WHITE",1,"F","Y","2014-01-02","2014-07-02","Placebo",0,"Placebo",0,"PULSE","Pulse Rate (BEATS/MIN)",3,"2014-02-12",42,817,"AFTER STANDING FOR 3 MINUTES","Week 6",6,57,59,-2,-3.38983050847,7,"WEEK 6",67,"Y",""],["CDISCPILOT01","701","01-701-1015",63,"<65",1,"WHITE",1,"F","Y","2014-01-02","2014-07-02","Placebo",0,"Placebo",0,"PULSE","Pulse Rate (BEATS/MIN)",3,"2014-03-05",63,817,"AFTER STANDING FOR 3 MINUTES","Week 8",8,57,59,-2,-3.38983050847,8,"WEEK 8",70,"Y",""],["CDISCPILOT01","701","01-701-1015",63,"<65",1,"WHITE",1,"F","Y","2014-01-02","2014-07-02","Placebo",0,"Placebo",0,"PULSE","Pulse Rate (BEATS/MIN)",3,"2014-03-26",84,817,"AFTER STANDING FOR 3 MINUTES","Week 12",12,52,59,-7,-11.8644067797,9,"WEEK 12",73,"Y",""],["CDISCPILOT01","701","01-701-1015",63,"<65",1,"WHITE",1,"F","Y","2014-01-02","2014-07-02","Placebo",0,"Placebo",0,"PULSE","Pulse Rate (BEATS/MIN)",3,"2014-05-07",126,817,"AFTER STANDING FOR 3 MINUTES","Week 16",16,61,59,2,3.38983050847,10,"WEEK 16",76,"Y",""],["CDISCPILOT01","701","01-701-1015",63,"<65",1,"WHITE",1,"F","Y","2014-01-02","2014-07-02","Placebo",0,"Placebo",0,"PULSE","Pulse Rate (BEATS/MIN)",3,"2014-05-21",140,817,"AFTER STANDING FOR 3 MINUTES","Week 20",20,58,59,-1,-1.69491525424,11,"WEEK 20",79,"Y",""],["CDISCPILOT01","701","01-701-1015",63,"<65",1,"WHITE",1,"F","Y","2014-01-02","2014-07-02","Placebo",0,"Placebo",0,"PULSE","Pulse Rate (BEATS/MIN)",3,"2014-06-18",168,817,"AFTER STANDING FOR 3 MINUTES","Week 24",24,56,59,-3,-5.08474576271,12,"WEEK 24",82,"Y",""],["CDISCPILOT01","701","01-701-1015",63,"<65",1,"WHITE",1,"F","Y","2014-01-02","2014-07-02","Placebo",0,"Placebo",0,"PULSE","Pulse Rate (BEATS/MIN)",3,"2014-07-02",182,817,"AFTER STANDING FOR 3 MINUTES","Week 26",26,59,59,0,0,13,"WEEK 26",85,"Y",""],["CDISCPILOT01","701","01-701-1015",63,"<65",1,"WHITE",1,"F","Y","2014-01-02","2014-07-02","Placebo",0,"Placebo",0,"PULSE","Pulse Rate (BEATS/MIN)",3,"2014-07-02",182,817,"AFTER STANDING FOR 3 MINUTES","End of Treatment",99,59,59,0,0,13,"WEEK 26",85,"Y",""],["CDISCPILOT01","701","01-701-1015",63,"<65",1,"WHITE",1,"F","Y","2014-01-02","2014-07-02","Placebo",0,"Placebo",0,"SYSBP","Systolic Blood Pressure (mmHg)",1,"2013-12-26",-7,815,"AFTER LYING DOWN FOR 5 MINUTES","",null,131,130,1,0.769230769231,1,"SCREENING 1",86,"",""],["CDISCPILOT01","701","01-701-1015",63,"<65",1,"WHITE",1,"F","Y","2014-01-02","2014-07-02","Placebo",0,"Placebo",0,"SYSBP","Systolic Blood Pressure (mmHg)",1,"2013-12-31",-2,815,"AFTER LYING DOWN FOR 5 MINUTES","",null,138,130,8,6.15384615385,2,"SCREENING 2",89,"",""],["CDISCPILOT01","701","01-701-1015",63,"<65",1,"WHITE",1,"F","Y","2014-01-02","2014-07-02","Placebo",0,"Placebo",0,"SYSBP","Systolic Blood Pressure (mmHg)",1,"2014-01-02",1,815,"AFTER LYING DOWN FOR 5 MINUTES","Baseline",0,130,130,0,0,3,"BASELINE",92,"Y","Y"],["CDISCPILOT01","701","01-701-1015",63,"<65",1,"WHITE",1,"F","Y","2014-01-02","2014-07-02","Placebo",0,"Placebo",0,"SYSBP","Systolic Blood Pressure (mmHg)",1,"2014-01-14",13,815,"AFTER LYING DOWN FOR 5 MINUTES","",null,137,130,7,5.38461538462,3.5,"AMBUL ECG PLACEMENT",95,"",""],["CDISCPILOT01","701","01-701-1015",63,"<65",1,"WHITE",1,"F","Y","2014-01-02","2014-07-02","Placebo",0,"Placebo",0,"SYSBP","Systolic Blood Pressure (mmHg)",1,"2014-01-16",15,815,"AFTER LYING DOWN FOR 5 MINUTES","Week 2",2,114,130,-16,-12.3076923077,4,"WEEK 2",98,"Y",""],["CDISCPILOT01","701","01-701-1015",63,"<65",1,"WHITE",1,"F","Y","2014-01-02","2014-07-02","Placebo",0,"Placebo",0,"SYSBP","Systolic Blood Pressure (mmHg)",1,"2014-01-30",29,815,"AFTER LYING DOWN FOR 5 MINUTES","Week 4",4,138,130,8,6.15384615385,5,"WEEK 4",101,"Y",""],["CDISCPILOT01","701","01-701-1015",63,"<65",1,"WHITE",1,"F","Y","2014-01-02","2014-07-02","Placebo",0,"Placebo",0,"SYSBP","Systolic Blood Pressure (mmHg)",1,"2014-02-01",31,815,"AFTER LYING DOWN FOR 5 MINUTES","",null,138,130,8,6.15384615385,6,"AMBUL ECG REMOVAL",104,"",""],["CDISCPILOT01","701","01-701-1015",63,"<65",1,"WHITE",1,"F","Y","2014-01-02","2014-07-02","Placebo",0,"Placebo",0,"SYSBP","Systolic Blood Pressure (mmHg)",1,"2014-02-12",42,815,"AFTER LYING DOWN FOR 5 MINUTES","Week 6",6,148,130,18,13.8461538462,7,"WEEK 6",107,"Y",""],["CDISCPILOT01","701","01-701-1015",63,"<65",1,"WHITE",1,"F","Y","2014-01-02","2014-07-02","Placebo",0,"Placebo",0,"SYSBP","Systolic Blood Pressure (mmHg)",1,"2014-03-05",63,815,"AFTER LYING DOWN FOR 5 MINUTES","Week 8",8,138,130,8,6.15384615385,8,"WEEK 8",110,"Y",""],["CDISCPILOT01","701","01-701-1015",63,"<65",1,"WHITE",1,"F","Y","2014-01-02","2014-07-02","Placebo",0,"Placebo",0,"SYSBP","Systolic Blood Pressure (mmHg)",1,"2014-03-26",84,815,"AFTER LYING DOWN FOR 5 MINUTES","Week 12",12,139,130,9,6.92307692308,9,"WEEK 12",113,"Y",""],["CDISCPILOT01","701","01-701-1015",63,"<65",1,"WHITE",1,"F","Y","2014-01-02","2014-07-02","Placebo",0,"Placebo",0,"SYSBP","Systolic Blood Pressure (mmHg)",1,"2014-05-07",126,815,"AFTER LYING DOWN FOR 5 MINUTES","Week 16",16,163,130,33,25.3846153846,10,"WEEK 16",116,"Y",""],["CDISCPILOT01","701","01-701-1015",63,"<65",1,"WHITE",1,"F","Y","2014-01-02","2014-07-02","Placebo",0,"Placebo",0,"SYSBP","Systolic Blood Pressure (mmHg)",1,"2014-05-21",140,815,"AFTER LYING DOWN FOR 5 MINUTES","Week 20",20,137,130,7,5.38461538462,11,"WEEK 20",119,"Y",""],["CDISCPILOT01","701","01-701-1015",63,"<65",1,"WHITE",1,"F","Y","2014-01-02","2014-07-02","Placebo",0,"Placebo",0,"SYSBP","Systolic Blood Pressure (mmHg)",1,"2014-06-18",168,815,"AFTER LYING DOWN FOR 5 MINUTES","Week 24",24,129,130,-1,-0.769230769231,12,"WEEK 24",122,"Y",""],["CDISCPILOT01","701","01-701-1015",63,"<65",1,"WHITE",1,"F","Y","2014-01-02","2014-07-02","Placebo",0,"Placebo",0,"SYSBP","Systolic Blood Pressure (mmHg)",1,"2014-07-02",182,815,"AFTER LYING DOWN FOR 5 MINUTES","Week 26",26,127,130,-3,-2.30769230769,13,"WEEK 26",125,"Y",""],["CDISCPILOT01","701","01-701-1015",63,"<65",1,"WHITE",1,"F","Y","2014-01-02","2014-07-02","Placebo",0,"Placebo",0,"SYSBP","Systolic Blood Pressure (mmHg)",1,"2014-07-02",182,815,"AFTER LYING DOWN FOR 5 MINUTES","End of Treatment",99,127,130,-3,-2.30769230769,13,"WEEK 26",125,"Y",""],["CDISCPILOT01","701","01-701-1015",63,"<65",1,"WHITE",1,"F","Y","2014-01-02","2014-07-02","Placebo",0,"Placebo",0,"SYSBP","Systolic Blood Pressure (mmHg)",1,"2013-12-26",-7,816,"AFTER STANDING FOR 1 MINUTE","",null,129,121,8,6.61157024793,1,"SCREENING 1",87,"",""],["CDISCPILOT01","701","01-701-1015",63,"<65",1,"WHITE",1,"F","Y","2014-01-02","2014-07-02","Placebo",0,"Placebo",0,"SYSBP","Systolic Blood Pressure (mmHg)",1,"2013-12-31",-2,816,"AFTER STANDING FOR 1 MINUTE","",null,137,121,16,13.2231404959,2,"SCREENING 2",90,"",""],["CDISCPILOT01","701","01-701-1015",63,"<65",1,"WHITE",1,"F","Y","2014-01-02","2014-07-02","Placebo",0,"Placebo",0,"SYSBP","Systolic Blood Pressure (mmHg)",1,"2014-01-02",1,816,"AFTER STANDING FOR 1 MINUTE","Baseline",0,121,121,0,0,3,"BASELINE",93,"Y","Y"],["CDISCPILOT01","701","01-701-1015",63,"<65",1,"WHITE",1,"F","Y","2014-01-02","2014-07-02","Placebo",0,"Placebo",0,"SYSBP","Systolic Blood Pressure (mmHg)",1,"2014-01-14",13,816,"AFTER STANDING FOR 1 MINUTE","",null,127,121,6,4.95867768595,3.5,"AMBUL ECG PLACEMENT",96,"",""],["CDISCPILOT01","701","01-701-1015",63,"<65",1,"WHITE",1,"F","Y","2014-01-02","2014-07-02","Placebo",0,"Placebo",0,"SYSBP","Systolic Blood Pressure (mmHg)",1,"2014-01-16",15,816,"AFTER STANDING FOR 1 MINUTE","Week 2",2,121,121,0,0,4,"WEEK 2",99,"Y",""],["CDISCPILOT01","701","01-701-1015",63,"<65",1,"WHITE",1,"F","Y","2014-01-02","2014-07-02","Placebo",0,"Placebo",0,"SYSBP","Systolic Blood Pressure (mmHg)",1,"2014-01-30",29,816,"AFTER STANDING FOR 1 MINUTE","Week 4",4,137,121,16,13.2231404959,5,"WEEK 4",102,"Y",""],["CDISCPILOT01","701","01-701-1015",63,"<65",1,"WHITE",1,"F","Y","2014-01-02","2014-07-02","Placebo",0,"Placebo",0,"SYSBP","Systolic Blood Pressure (mmHg)",1,"2014-02-01",31,816,"AFTER STANDING FOR 1 MINUTE","",null,131,121,10,8.26446280992,6,"AMBUL ECG REMOVAL",105,"",""],["CDISCPILOT01","701","01-701-1015",63,"<65",1,"WHITE",1,"F","Y","2014-01-02","2014-07-02","Placebo",0,"Placebo",0,"SYSBP","Systolic Blood Pressure (mmHg)",1,"2014-02-12",42,816,"AFTER STANDING FOR 1 MINUTE","Week 6",6,137,121,16,13.2231404959,7,"WEEK 6",108,"Y",""],["CDISCPILOT01","701","01-701-1015",63,"<65",1,"WHITE",1,"F","Y","2014-01-02","2014-07-02","Placebo",0,"Placebo",0,"SYSBP","Systolic Blood Pressure (mmHg)",1,"2014-03-05",63,816,"AFTER STANDING FOR 1 MINUTE","Week 8",8,146,121,25,20.6611570248,8,"WEEK 8",111,"Y",""],["CDISCPILOT01","701","01-701-1015",63,"<65",1,"WHITE",1,"F","Y","2014-01-02","2014-07-02","Placebo",0,"Placebo",0,"SYSBP","Systolic Blood Pressure (mmHg)",1,"2014-03-26",84,816,"AFTER STANDING FOR 1 MINUTE","Week 12",12,146,121,25,20.6611570248,9,"WEEK 12",114,"Y",""],["CDISCPILOT01","701","01-701-1015",63,"<65",1,"WHITE",1,"F","Y","2014-01-02","2014-07-02","Placebo",0,"Placebo",0,"SYSBP","Systolic Blood Pressure (mmHg)",1,"2014-05-07",126,816,"AFTER STANDING FOR 1 MINUTE","Week 16",16,145,121,24,19.8347107438,10,"WEEK 16",117,"Y",""],["CDISCPILOT01","701","01-701-1015",63,"<65",1,"WHITE",1,"F","Y","2014-01-02","2014-07-02","Placebo",0,"Placebo",0,"SYSBP","Systolic Blood Pressure (mmHg)",1,"2014-05-21",140,816,"AFTER STANDING FOR 1 MINUTE","Week 20",20,139,121,18,14.8760330579,11,"WEEK 20",120,"Y",""],["CDISCPILOT01","701","01-701-1015",63,"<65",1,"WHITE",1,"F","Y","2014-01-02","2014-07-02","Placebo",0,"Placebo",0,"SYSBP","Systolic Blood Pressure (mmHg)",1,"2014-06-18",168,816,"AFTER STANDING FOR 1 MINUTE","Week 24",24,131,121,10,8.26446280992,12,"WEEK 24",123,"Y",""],["CDISCPILOT01","701","01-701-1015",63,"<65",1,"WHITE",1,"F","Y","2014-01-02","2014-07-02","Placebo",0,"Placebo",0,"SYSBP","Systolic Blood Pressure (mmHg)",1,"2014-07-02",182,816,"AFTER STANDING FOR 1 MINUTE","Week 26",26,128,121,7,5.78512396694,13,"WEEK 26",126,"Y",""],["CDISCPILOT01","701","01-701-1015",63,"<65",1,"WHITE",1,"F","Y","2014-01-02","2014-07-02","Placebo",0,"Placebo",0,"SYSBP","Systolic Blood Pressure (mmHg)",1,"2014-07-02",182,816,"AFTER STANDING FOR 1 MINUTE","End of Treatment",99,128,121,7,5.78512396694,13,"WEEK 26",126,"Y",""],["CDISCPILOT01","701","01-701-1015",63,"<65",1,"WHITE",1,"F","Y","2014-01-02","2014-07-02","Placebo",0,"Placebo",0,"SYSBP","Systolic Blood Pressure (mmHg)",1,"2013-12-26",-7,817,"AFTER STANDING FOR 3 MINUTES","",null,147,131,16,12.213740458,1,"SCREENING 1",88,"",""],["CDISCPILOT01","701","01-701-1015",63,"<65",1,"WHITE",1,"F","Y","2014-01-02","2014-07-02","Placebo",0,"Placebo",0,"SYSBP","Systolic Blood Pressure (mmHg)",1,"2013-12-31",-2,817,"AFTER STANDING FOR 3 MINUTES","",null,145,131,14,10.6870229008,2,"SCREENING 2",91,"",""],["CDISCPILOT01","701","01-701-1015",63,"<65",1,"WHITE",1,"F","Y","2014-01-02","2014-07-02","Placebo",0,"Placebo",0,"SYSBP","Systolic Blood Pressure (mmHg)",1,"2014-01-02",1,817,"AFTER STANDING FOR 3 MINUTES","Baseline",0,131,131,0,0,3,"BASELINE",94,"Y","Y"],["CDISCPILOT01","701","01-701-1015",63,"<65",1,"WHITE",1,"F","Y","2014-01-02","2014-07-02","Placebo",0,"Placebo",0,"SYSBP","Systolic Blood Pressure (mmHg)",1,"2014-01-14",13,817,"AFTER STANDING FOR 3 MINUTES","",null,146,131,15,11.4503816794,3.5,"AMBUL ECG PLACEMENT",97,"",""],["CDISCPILOT01","701","01-701-1015",63,"<65",1,"WHITE",1,"F","Y","2014-01-02","2014-07-02","Placebo",0,"Placebo",0,"SYSBP","Systolic Blood Pressure (mmHg)",1,"2014-01-16",15,817,"AFTER STANDING FOR 3 MINUTES","Week 2",2,132,131,1,0.763358778626,4,"WEEK 2",100,"Y",""],["CDISCPILOT01","701","01-701-1015",63,"<65",1,"WHITE",1,"F","Y","2014-01-02","2014-07-02","Placebo",0,"Placebo",0,"SYSBP","Systolic Blood Pressure (mmHg)",1,"2014-01-30",29,817,"AFTER STANDING FOR 3 MINUTES","Week 4",4,132,131,1,0.763358778626,5,"WEEK 4",103,"Y",""],["CDISCPILOT01","701","01-701-1015",63,"<65",1,"WHITE",1,"F","Y","2014-01-02","2014-07-02","Placebo",0,"Placebo",0,"SYSBP","Systolic Blood Pressure (mmHg)",1,"2014-02-01",31,817,"AFTER STANDING FOR 3 MINUTES","",null,123,131,-8,-6.10687022901,6,"AMBUL ECG REMOVAL",106,"",""],["CDISCPILOT01","701","01-701-1015",63,"<65",1,"WHITE",1,"F","Y","2014-01-02","2014-07-02","Placebo",0,"Placebo",0,"SYSBP","Systolic Blood Pressure (mmHg)",1,"2014-02-12",42,817,"AFTER STANDING FOR 3 MINUTES","Week 6",6,138,131,7,5.34351145038,7,"WEEK 6",109,"Y",""],["CDISCPILOT01","701","01-701-1015",63,"<65",1,"WHITE",1,"F","Y","2014-01-02","2014-07-02","Placebo",0,"Placebo",0,"SYSBP","Systolic Blood Pressure (mmHg)",1,"2014-03-05",63,817,"AFTER STANDING FOR 3 MINUTES","Week 8",8,140,131,9,6.87022900763,8,"WEEK 8",112,"Y",""],["CDISCPILOT01","701","01-701-1015",63,"<65",1,"WHITE",1,"F","Y","2014-01-02","2014-07-02","Placebo",0,"Placebo",0,"SYSBP","Systolic Blood Pressure (mmHg)",1,"2014-03-26",84,817,"AFTER STANDING FOR 3 MINUTES","Week 12",12,138,131,7,5.34351145038,9,"WEEK 12",115,"Y",""],["CDISCPILOT01","701","01-701-1015",63,"<65",1,"WHITE",1,"F","Y","2014-01-02","2014-07-02","Placebo",0,"Placebo",0,"SYSBP","Systolic Blood Pressure (mmHg)",1,"2014-05-07",126,817,"AFTER STANDING FOR 3 MINUTES","Week 16",16,152,131,21,16.0305343511,10,"WEEK 16",118,"Y",""],["CDISCPILOT01","701","01-701-1015",63,"<65",1,"WHITE",1,"F","Y","2014-01-02","2014-07-02","Placebo",0,"Placebo",0,"SYSBP","Systolic Blood Pressure (mmHg)",1,"2014-05-21",140,817,"AFTER STANDING FOR 3 MINUTES","Week 20",20,136,131,5,3.81679389313,11,"WEEK 20",121,"Y",""],["CDISCPILOT01","701","01-701-1015",63,"<65",1,"WHITE",1,"F","Y","2014-01-02","2014-07-02","Placebo",0,"Placebo",0,"SYSBP","Systolic Blood Pressure (mmHg)",1,"2014-06-18",168,817,"AFTER STANDING FOR 3 MINUTES","Week 24",24,137,131,6,4.58015267176,12,"WEEK 24",124,"Y",""],["CDISCPILOT01","701","01-701-1015",63,"<65",1,"WHITE",1,"F","Y","2014-01-02","2014-07-02","Placebo",0,"Placebo",0,"SYSBP","Systolic Blood Pressure (mmHg)",1,"2014-07-02",182,817,"AFTER STANDING FOR 3 MINUTES","Week 26",26,129,131,-2,-1.52671755725,13,"WEEK 26",127,"Y",""],["CDISCPILOT01","701","01-701-1015",63,"<65",1,"WHITE",1,"F","Y","2014-01-02","2014-07-02","Placebo",0,"Placebo",0,"SYSBP","Systolic Blood Pressure (mmHg)",1,"2014-07-02",182,817,"AFTER STANDING FOR 3 MINUTES","End of Treatment",99,129,131,-2,-1.52671755725,13,"WEEK 26",127,"Y",""],["CDISCPILOT01","701","01-701-1015",63,"<65",1,"WHITE",1,"F","Y","2014-01-02","2014-07-02","Placebo",0,"Placebo",0,"TEMP","Temperature (C)",6,"2013-12-26",-7,null,"","",null,36.06,36.22,-0.16,-0.441744892325,1,"SCREENING 1",128,"",""],["CDISCPILOT01","701","01-701-1015",63,"<65",1,"WHITE",1,"F","Y","2014-01-02","2014-07-02","Placebo",0,"Placebo",0,"TEMP","Temperature (C)",6,"2013-12-31",-2,null,"","",null,36.11,36.22,-0.11,-0.303699613473,2,"SCREENING 2",129,"",""],["CDISCPILOT01","701","01-701-1015",63,"<65",1,"WHITE",1,"F","Y","2014-01-02","2014-07-02","Placebo",0,"Placebo",0,"TEMP","Temperature (C)",6,"2014-01-02",1,null,"","Baseline",0,36.22,36.22,0,0,3,"BASELINE",130,"Y","Y"],["CDISCPILOT01","701","01-701-1015",63,"<65",1,"WHITE",1,"F","Y","2014-01-02","2014-07-02","Placebo",0,"Placebo",0,"TEMP","Temperature (C)",6,"2014-01-14",13,null,"","",null,35.89,36.22,-0.33,-0.91109884042,3.5,"AMBUL ECG PLACEMENT",131,"",""],["CDISCPILOT01","701","01-701-1015",63,"<65",1,"WHITE",1,"F","Y","2014-01-02","2014-07-02","Placebo",0,"Placebo",0,"TEMP","Temperature (C)",6,"2014-01-16",15,null,"","Week 2",2,36.5,36.22,0.28,0.773053561568,4,"WEEK 2",132,"Y",""],["CDISCPILOT01","701","01-701-1015",63,"<65",1,"WHITE",1,"F","Y","2014-01-02","2014-07-02","Placebo",0,"Placebo",0,"TEMP","Temperature (C)",6,"2014-01-30",29,null,"","Week 4",4,36.11,36.22,-0.11,-0.303699613473,5,"WEEK 4",133,"Y",""],["CDISCPILOT01","701","01-701-1015",63,"<65",1,"WHITE",1,"F","Y","2014-01-02","2014-07-02","Placebo",0,"Placebo",0,"TEMP","Temperature (C)",6,"2014-02-01",31,null,"","",null,36.39,36.22,0.17,0.469353948095,6,"AMBUL ECG REMOVAL",134,"",""],["CDISCPILOT01","701","01-701-1015",63,"<65",1,"WHITE",1,"F","Y","2014-01-02","2014-07-02","Placebo",0,"Placebo",0,"TEMP","Temperature (C)",6,"2014-02-12",42,null,"","Week 6",6,36.33,36.22,0.11,0.303699613473,7,"WEEK 6",135,"Y",""],["CDISCPILOT01","701","01-701-1015",63,"<65",1,"WHITE",1,"F","Y","2014-01-02","2014-07-02","Placebo",0,"Placebo",0,"TEMP","Temperature (C)",6,"2014-03-05",63,null,"","Week 8",8,36.67,36.22,0.45,1.24240750966,8,"WEEK 8",136,"Y",""],["CDISCPILOT01","701","01-701-1015",63,"<65",1,"WHITE",1,"F","Y","2014-01-02","2014-07-02","Placebo",0,"Placebo",0,"TEMP","Temperature (C)",6,"2014-03-26",84,null,"","Week 12",12,36.33,36.22,0.11,0.303699613473,9,"WEEK 12",137,"Y",""],["CDISCPILOT01","701","01-701-1015",63,"<65",1,"WHITE",1,"F","Y","2014-01-02","2014-07-02","Placebo",0,"Placebo",0,"TEMP","Temperature (C)",6,"2014-05-07",126,null,"","Week 16",16,36.61,36.22,0.39,1.07675317504,10,"WEEK 16",138,"Y",""],["CDISCPILOT01","701","01-701-1015",63,"<65",1,"WHITE",1,"F","Y","2014-01-02","2014-07-02","Placebo",0,"Placebo",0,"TEMP","Temperature (C)",6,"2014-05-21",140,null,"","Week 20",20,36.33,36.22,0.11,0.303699613473,11,"WEEK 20",139,"Y",""],["CDISCPILOT01","701","01-701-1015",63,"<65",1,"WHITE",1,"F","Y","2014-01-02","2014-07-02","Placebo",0,"Placebo",0,"TEMP","Temperature (C)",6,"2014-06-18",168,null,"","Week 24",24,36.5,36.22,0.28,0.773053561568,12,"WEEK 24",140,"Y",""],["CDISCPILOT01","701","01-701-1015",63,"<65",1,"WHITE",1,"F","Y","2014-01-02","2014-07-02","Placebo",0,"Placebo",0,"TEMP","Temperature (C)",6,"2014-07-02",182,null,"","Week 26",26,36.22,36.22,0,0,13,"WEEK 26",141,"Y",""],["CDISCPILOT01","701","01-701-1015",63,"<65",1,"WHITE",1,"F","Y","2014-01-02","2014-07-02","Placebo",0,"Placebo",0,"TEMP","Temperature (C)",6,"2014-07-02",182,null,"","End of Treatment",99,36.22,36.22,0,0,13,"WEEK 26",141,"Y",""],["CDISCPILOT01","701","01-701-1015",63,"<65",1,"WHITE",1,"F","Y","2014-01-02","2014-07-02","Placebo",0,"Placebo",0,"WEIGHT","Weight (kg)",4,"2013-12-26",-7,null,"","",null,53.98,54.43,-0.45,-0.826749954069,1,"SCREENING 1",142,"",""],["CDISCPILOT01","701","01-701-1015",63,"<65",1,"WHITE",1,"F","Y","2014-01-02","2014-07-02","Placebo",0,"Placebo",0,"WEIGHT","Weight (kg)",4,"2014-01-02",1,null,"","Baseline",0,54.43,54.43,0,0,3,"BASELINE",143,"Y","Y"],["CDISCPILOT01","701","01-701-1015",63,"<65",1,"WHITE",1,"F","Y","2014-01-02","2014-07-02","Placebo",0,"Placebo",0,"WEIGHT","Weight (kg)",4,"2014-01-16",15,null,"","Week 2",2,53.07,54.43,-1.36,-2.49862208341,4,"WEEK 2",144,"Y",""],["CDISCPILOT01","701","01-701-1015",63,"<65",1,"WHITE",1,"F","Y","2014-01-02","2014-07-02","Placebo",0,"Placebo",0,"WEIGHT","Weight (kg)",4,"2014-01-30",29,null,"","Week 4",4,53.98,54.43,-0.45,-0.826749954069,5,"WEEK 4",145,"Y",""],["CDISCPILOT01","701","01-701-1015",63,"<65",1,"WHITE",1,"F","Y","2014-01-02","2014-07-02","Placebo",0,"Placebo",0,"WEIGHT","Weight (kg)",4,"2014-02-12",42,null,"","Week 6",6,53.07,54.43,-1.36,-2.49862208341,7,"WEEK 6",146,"Y",""],["CDISCPILOT01","701","01-701-1015",63,"<65",1,"WHITE",1,"F","Y","2014-01-02","2014-07-02","Placebo",0,"Placebo",0,"WEIGHT","Weight (kg)",4,"2014-03-05",63,null,"","Week 8",8,53.07,54.43,-1.36,-2.49862208341,8,"WEEK 8",147,"Y",""],["CDISCPILOT01","701","01-701-1015",63,"<65",1,"WHITE",1,"F","Y","2014-01-02","2014-07-02","Placebo",0,"Placebo",0,"WEIGHT","Weight (kg)",4,"2014-03-26",84,null,"","Week 12",12,53.07,54.43,-1.36,-2.49862208341,9,"WEEK 12",148,"Y",""],["CDISCPILOT01","701","01-701-1015",63,"<65",1,"WHITE",1,"F","Y","2014-01-02","2014-07-02","Placebo",0,"Placebo",0,"WEIGHT","Weight (kg)",4,"2014-05-07",126,null,"","Week 16",16,53.07,54.43,-1.36,-2.49862208341,10,"WEEK 16",149,"Y",""],["CDISCPILOT01","701","01-701-1015",63,"<65",1,"WHITE",1,"F","Y","2014-01-02","2014-07-02","Placebo",0,"Placebo",0,"WEIGHT","Weight (kg)",4,"2014-05-21",140,null,"","Week 20",20,53.07,54.43,-1.36,-2.49862208341,11,"WEEK 20",150,"Y",""],["CDISCPILOT01","701","01-701-1015",63,"<65",1,"WHITE",1,"F","Y","2014-01-02","2014-07-02","Placebo",0,"Placebo",0,"WEIGHT","Weight (kg)",4,"2014-06-18",168,null,"","Week 24",24,53.07,54.43,-1.36,-2.49862208341,12,"WEEK 24",151,"Y",""],["CDISCPILOT01","701","01-701-1015",63,"<65",1,"WHITE",1,"F","Y","2014-01-02","2014-07-02","Placebo",0,"Placebo",0,"WEIGHT","Weight (kg)",4,"2014-07-02",182,null,"","Week 26",26,53.52,54.43,-0.91,-1.67187212934,13,"WEEK 26",152,"Y",""],["CDISCPILOT01","701","01-701-1015",63,"<65",1,"WHITE",1,"F","Y","2014-01-02","2014-07-02","Placebo",0,"Placebo",0,"WEIGHT","Weight (kg)",4,"2014-07-02",182,null,"","End of Treatment",99,53.52,54.43,-0.91,-1.67187212934,13,"WEEK 26",152,"Y",""],["CDISCPILOT01","701","01-701-1023",64,"<65",1,"WHITE",1,"M","Y","2012-08-05","2012-09-01","Placebo",0,"Placebo",0,"DIABP","Diastolic Blood Pressure (mmHg)",2,"2012-07-22",-14,815,"AFTER LYING DOWN FOR 5 MINUTES","",null,86,84,2,2.38095238095,1,"SCREENING 1",1,"",""],["CDISCPILOT01","701","01-701-1023",64,"<65",1,"WHITE",1,"M","Y","2012-08-05","2012-09-01","Placebo",0,"Placebo",0,"DIABP","Diastolic Blood Pressure (mmHg)",2,"2012-08-03",-2,815,"AFTER LYING DOWN FOR 5 MINUTES","",null,77,84,-7,-8.33333333333,2,"SCREENING 2",4,"",""],["CDISCPILOT01","701","01-701-1023",64,"<65",1,"WHITE",1,"M","Y","2012-08-05","2012-09-01","Placebo",0,"Placebo",0,"DIABP","Diastolic Blood Pressure (mmHg)",2,"2012-08-05",1,815,"AFTER LYING DOWN FOR 5 MINUTES","Baseline",0,84,84,0,0,3,"BASELINE",7,"Y","Y"],["CDISCPILOT01","701","01-701-1023",64,"<65",1,"WHITE",1,"M","Y","2012-08-05","2012-09-01","Placebo",0,"Placebo",0,"DIABP","Diastolic Blood Pressure (mmHg)",2,"2012-08-26",22,815,"AFTER LYING DOWN FOR 5 MINUTES","",null,82,84,-2,-2.38095238095,3.5,"AMBUL ECG PLACEMENT",10,"",""],["CDISCPILOT01","701","01-701-1023",64,"<65",1,"WHITE",1,"M","Y","2012-08-05","2012-09-01","Placebo",0,"Placebo",0,"DIABP","Diastolic Blood Pressure (mmHg)",2,"2012-08-27",23,815,"AFTER LYING DOWN FOR 5 MINUTES","Week 2",2,88,84,4,4.7619047619,4,"WEEK 2",13,"Y",""],["CDISCPILOT01","701","01-701-1023",64,"<65",1,"WHITE",1,"M","Y","2012-08-05","2012-09-01","Placebo",0,"Placebo",0,"DIABP","Diastolic Blood Pressure (mmHg)",2,"2012-09-02",29,815,"AFTER LYING DOWN FOR 5 MINUTES","Week 4",4,86,84,2,2.38095238095,5,"WEEK 4",16,"Y",""],["CDISCPILOT01","701","01-701-1023",64,"<65",1,"WHITE",1,"M","Y","2012-08-05","2012-09-01","Placebo",0,"Placebo",0,"DIABP","Diastolic Blood Pressure (mmHg)",2,"2012-09-02",29,815,"AFTER LYING DOWN FOR 5 MINUTES","End of Treatment",99,86,84,2,2.38095238095,5,"WEEK 4",16,"Y",""],["CDISCPILOT01","701","01-701-1023",64,"<65",1,"WHITE",1,"M","Y","2012-08-05","2012-09-01","Placebo",0,"Placebo",0,"DIABP","Diastolic Blood Pressure (mmHg)",2,"2013-02-18",198,815,"AFTER LYING DOWN FOR 5 MINUTES","",null,89,84,5,5.95238095238,201,"RETRIEVAL",19,"",""],["CDISCPILOT01","701","01-701-1023",64,"<65",1,"WHITE",1,"M","Y","2012-08-05","2012-09-01","Placebo",0,"Placebo",0,"DIABP","Diastolic Blood Pressure (mmHg)",2,"2012-07-22",-14,816,"AFTER STANDING FOR 1 MINUTE","",null,89,86,3,3.48837209302,1,"SCREENING 1",2,"",""],["CDISCPILOT01","701","01-701-1023",64,"<65",1,"WHITE",1,"M","Y","2012-08-05","2012-09-01","Placebo",0,"Placebo",0,"DIABP","Diastolic Blood Pressure (mmHg)",2,"2012-08-03",-2,816,"AFTER STANDING FOR 1 MINUTE","",null,79,86,-7,-8.13953488372,2,"SCREENING 2",5,"",""],["CDISCPILOT01","701","01-701-1023",64,"<65",1,"WHITE",1,"M","Y","2012-08-05","2012-09-01","Placebo",0,"Placebo",0,"DIABP","Diastolic Blood Pressure (mmHg)",2,"2012-08-05",1,816,"AFTER STANDING FOR 1 MINUTE","Baseline",0,86,86,0,0,3,"BASELINE",8,"Y","Y"],["CDISCPILOT01","701","01-701-1023",64,"<65",1,"WHITE",1,"M","Y","2012-08-05","2012-09-01","Placebo",0,"Placebo",0,"DIABP","Diastolic Blood Pressure (mmHg)",2,"2012-08-26",22,816,"AFTER STANDING FOR 1 MINUTE","",null,88,86,2,2.32558139535,3.5,"AMBUL ECG PLACEMENT",11,"",""],["CDISCPILOT01","701","01-701-1023",64,"<65",1,"WHITE",1,"M","Y","2012-08-05","2012-09-01","Placebo",0,"Placebo",0,"DIABP","Diastolic Blood Pressure (mmHg)",2,"2012-08-27",23,816,"AFTER STANDING FOR 1 MINUTE","Week 2",2,86,86,0,0,4,"WEEK 2",14,"Y",""],["CDISCPILOT01","701","01-701-1023",64,"<65",1,"WHITE",1,"M","Y","2012-08-05","2012-09-01","Placebo",0,"Placebo",0,"DIABP","Diastolic Blood Pressure (mmHg)",2,"2012-09-02",29,816,"AFTER STANDING FOR 1 MINUTE","Week 4",4,88,86,2,2.32558139535,5,"WEEK 4",17,"Y",""],["CDISCPILOT01","701","01-701-1023",64,"<65",1,"WHITE",1,"M","Y","2012-08-05","2012-09-01","Placebo",0,"Placebo",0,"DIABP","Diastolic Blood Pressure (mmHg)",2,"2012-09-02",29,816,"AFTER STANDING FOR 1 MINUTE","End of Treatment",99,88,86,2,2.32558139535,5,"WEEK 4",17,"Y",""],["CDISCPILOT01","701","01-701-1023",64,"<65",1,"WHITE",1,"M","Y","2012-08-05","2012-09-01","Placebo",0,"Placebo",0,"DIABP","Diastolic Blood Pressure (mmHg)",2,"2013-02-18",198,816,"AFTER STANDING FOR 1 MINUTE","",null,86,86,0,0,201,"RETRIEVAL",20,"",""],["CDISCPILOT01","701","01-701-1023",64,"<65",1,"WHITE",1,"M","Y","2012-08-05","2012-09-01","Placebo",0,"Placebo",0,"DIABP","Diastolic Blood Pressure (mmHg)",2,"2012-07-22",-14,817,"AFTER STANDING FOR 3 MINUTES","",null,90,88,2,2.27272727273,1,"SCREENING 1",3,"",""],["CDISCPILOT01","701","01-701-1023",64,"<65",1,"WHITE",1,"M","Y","2012-08-05","2012-09-01","Placebo",0,"Placebo",0,"DIABP","Diastolic Blood Pressure (mmHg)",2,"2012-08-03",-2,817,"AFTER STANDING FOR 3 MINUTES","",null,85,88,-3,-3.40909090909,2,"SCREENING 2",6,"",""],["CDISCPILOT01","701","01-701-1023",64,"<65",1,"WHITE",1,"M","Y","2012-08-05","2012-09-01","Placebo",0,"Placebo",0,"DIABP","Diastolic Blood Pressure (mmHg)",2,"2012-08-05",1,817,"AFTER STANDING FOR 3 MINUTES","Baseline",0,88,88,0,0,3,"BASELINE",9,"Y","Y"],["CDISCPILOT01","701","01-701-1023",64,"<65",1,"WHITE",1,"M","Y","2012-08-05","2012-09-01","Placebo",0,"Placebo",0,"DIABP","Diastolic Blood Pressure (mmHg)",2,"2012-08-26",22,817,"AFTER STANDING FOR 3 MINUTES","",null,89,88,1,1.13636363636,3.5,"AMBUL ECG PLACEMENT",12,"",""],["CDISCPILOT01","701","01-701-1023",64,"<65",1,"WHITE",1,"M","Y","2012-08-05","2012-09-01","Placebo",0,"Placebo",0,"DIABP","Diastolic Blood Pressure (mmHg)",2,"2012-08-27",23,817,"AFTER STANDING FOR 3 MINUTES","Week 2",2,90,88,2,2.27272727273,4,"WEEK 2",15,"Y",""],["CDISCPILOT01","701","01-701-1023",64,"<65",1,"WHITE",1,"M","Y","2012-08-05","2012-09-01","Placebo",0,"Placebo",0,"DIABP","Diastolic Blood Pressure (mmHg)",2,"2012-09-02",29,817,"AFTER STANDING FOR 3 MINUTES","Week 4",4,92,88,4,4.54545454545,5,"WEEK 4",18,"Y",""],["CDISCPILOT01","701","01-701-1023",64,"<65",1,"WHITE",1,"M","Y","2012-08-05","2012-09-01","Placebo",0,"Placebo",0,"DIABP","Diastolic Blood Pressure (mmHg)",2,"2012-09-02",29,817,"AFTER STANDING FOR 3 MINUTES","End of Treatment",99,92,88,4,4.54545454545,5,"WEEK 4",18,"Y",""],["CDISCPILOT01","701","01-701-1023",64,"<65",1,"WHITE",1,"M","Y","2012-08-05","2012-09-01","Placebo",0,"Placebo",0,"DIABP","Diastolic Blood Pressure (mmHg)",2,"2013-02-18",198,817,"AFTER STANDING FOR 3 MINUTES","",null,84,88,-4,-4.54545454545,201,"RETRIEVAL",21,"",""],["CDISCPILOT01","701","01-701-1023",64,"<65",1,"WHITE",1,"M","Y","2012-08-05","2012-09-01","Placebo",0,"Placebo",0,"HEIGHT","Height (cm)",5,"2012-07-22",-14,null,"","",null,162.56,null,null,null,1,"SCREENING 1",22,"",""],["CDISCPILOT01","701","01-701-1023",64,"<65",1,"WHITE",1,"M","Y","2012-08-05","2012-09-01","Placebo",0,"Placebo",0,"PULSE","Pulse Rate (BEATS/MIN)",3,"2012-07-22",-14,815,"AFTER LYING DOWN FOR 5 MINUTES","",null,65,68,-3,-4.41176470588,1,"SCREENING 1",23,"",""],["CDISCPILOT01","701","01-701-1023",64,"<65",1,"WHITE",1,"M","Y","2012-08-05","2012-09-01","Placebo",0,"Placebo",0,"PULSE","Pulse Rate (BEATS/MIN)",3,"2012-08-03",-2,815,"AFTER LYING DOWN FOR 5 MINUTES","",null,79,68,11,16.1764705882,2,"SCREENING 2",26,"",""],["CDISCPILOT01","701","01-701-1023",64,"<65",1,"WHITE",1,"M","Y","2012-08-05","2012-09-01","Placebo",0,"Placebo",0,"PULSE","Pulse Rate (BEATS/MIN)",3,"2012-08-05",1,815,"AFTER LYING DOWN FOR 5 MINUTES","Baseline",0,68,68,0,0,3,"BASELINE",29,"Y","Y"],["CDISCPILOT01","701","01-701-1023",64,"<65",1,"WHITE",1,"M","Y","2012-08-05","2012-09-01","Placebo",0,"Placebo",0,"PULSE","Pulse Rate (BEATS/MIN)",3,"2012-08-26",22,815,"AFTER LYING DOWN FOR 5 MINUTES","",null,71,68,3,4.41176470588,3.5,"AMBUL ECG PLACEMENT",32,"",""],["CDISCPILOT01","701","01-701-1023",64,"<65",1,"WHITE",1,"M","Y","2012-08-05","2012-09-01","Placebo",0,"Placebo",0,"PULSE","Pulse Rate (BEATS/MIN)",3,"2012-08-27",23,815,"AFTER LYING DOWN FOR 5 MINUTES","Week 2",2,84,68,16,23.5294117647,4,"WEEK 2",35,"Y",""],["CDISCPILOT01","701","01-701-1023",64,"<65",1,"WHITE",1,"M","Y","2012-08-05","2012-09-01","Placebo",0,"Placebo",0,"PULSE","Pulse Rate (BEATS/MIN)",3,"2012-09-02",29,815,"AFTER LYING DOWN FOR 5 MINUTES","Week 4",4,64,68,-4,-5.88235294118,5,"WEEK 4",38,"Y",""],["CDISCPILOT01","701","01-701-1023",64,"<65",1,"WHITE",1,"M","Y","2012-08-05","2012-09-01","Placebo",0,"Placebo",0,"PULSE","Pulse Rate (BEATS/MIN)",3,"2012-09-02",29,815,"AFTER LYING DOWN FOR 5 MINUTES","End of Treatment",99,64,68,-4,-5.88235294118,5,"WEEK 4",38,"Y",""],["CDISCPILOT01","701","01-701-1023",64,"<65",1,"WHITE",1,"M","Y","2012-08-05","2012-09-01","Placebo",0,"Placebo",0,"PULSE","Pulse Rate (BEATS/MIN)",3,"2013-02-18",198,815,"AFTER LYING DOWN FOR 5 MINUTES","",null,72,68,4,5.88235294118,201,"RETRIEVAL",41,"",""],["CDISCPILOT01","701","01-701-1023",64,"<65",1,"WHITE",1,"M","Y","2012-08-05","2012-09-01","Placebo",0,"Placebo",0,"PULSE","Pulse Rate (BEATS/MIN)",3,"2012-07-22",-14,816,"AFTER STANDING FOR 1 MINUTE","",null,78,80,-2,-2.5,1,"SCREENING 1",24,"",""],["CDISCPILOT01","701","01-701-1023",64,"<65",1,"WHITE",1,"M","Y","2012-08-05","2012-09-01","Placebo",0,"Placebo",0,"PULSE","Pulse Rate (BEATS/MIN)",3,"2012-08-03",-2,816,"AFTER STANDING FOR 1 MINUTE","",null,91,80,11,13.75,2,"SCREENING 2",27,"",""],["CDISCPILOT01","701","01-701-1023",64,"<65",1,"WHITE",1,"M","Y","2012-08-05","2012-09-01","Placebo",0,"Placebo",0,"PULSE","Pulse Rate (BEATS/MIN)",3,"2012-08-05",1,816,"AFTER STANDING FOR 1 MINUTE","Baseline",0,80,80,0,0,3,"BASELINE",30,"Y","Y"],["CDISCPILOT01","701","01-701-1023",64,"<65",1,"WHITE",1,"M","Y","2012-08-05","2012-09-01","Placebo",0,"Placebo",0,"PULSE","Pulse Rate (BEATS/MIN)",3,"2012-08-26",22,816,"AFTER STANDING FOR 1 MINUTE","",null,79,80,-1,-1.25,3.5,"AMBUL ECG PLACEMENT",33,"",""],["CDISCPILOT01","701","01-701-1023",64,"<65",1,"WHITE",1,"M","Y","2012-08-05","2012-09-01","Placebo",0,"Placebo",0,"PULSE","Pulse Rate (BEATS/MIN)",3,"2012-08-27",23,816,"AFTER STANDING FOR 1 MINUTE","Week 2",2,92,80,12,15,4,"WEEK 2",36,"Y",""],["CDISCPILOT01","701","01-701-1023",64,"<65",1,"WHITE",1,"M","Y","2012-08-05","2012-09-01","Placebo",0,"Placebo",0,"PULSE","Pulse Rate (BEATS/MIN)",3,"2012-09-02",29,816,"AFTER STANDING FOR 1 MINUTE","Week 4",4,76,80,-4,-5,5,"WEEK 4",39,"Y",""],["CDISCPILOT01","701","01-701-1023",64,"<65",1,"WHITE",1,"M","Y","2012-08-05","2012-09-01","Placebo",0,"Placebo",0,"PULSE","Pulse Rate (BEATS/MIN)",3,"2012-09-02",29,816,"AFTER STANDING FOR 1 MINUTE","End of Treatment",99,76,80,-4,-5,5,"WEEK 4",39,"Y",""],["CDISCPILOT01","701","01-701-1023",64,"<65",1,"WHITE",1,"M","Y","2012-08-05","2012-09-01","Placebo",0,"Placebo",0,"PULSE","Pulse Rate (BEATS/MIN)",3,"2013-02-18",198,816,"AFTER STANDING FOR 1 MINUTE","",null,84,80,4,5,201,"RETRIEVAL",42,"",""],["CDISCPILOT01","701","01-701-1023",64,"<65",1,"WHITE",1,"M","Y","2012-08-05","2012-09-01","Placebo",0,"Placebo",0,"PULSE","Pulse Rate (BEATS/MIN)",3,"2012-07-22",-14,817,"AFTER STANDING FOR 3 MINUTES","",null,74,76,-2,-2.63157894737,1,"SCREENING 1",25,"",""],["CDISCPILOT01","701","01-701-1023",64,"<65",1,"WHITE",1,"M","Y","2012-08-05","2012-09-01","Placebo",0,"Placebo",0,"PULSE","Pulse Rate (BEATS/MIN)",3,"2012-08-03",-2,817,"AFTER STANDING FOR 3 MINUTES","",null,92,76,16,21.0526315789,2,"SCREENING 2",28,"",""],["CDISCPILOT01","701","01-701-1023",64,"<65",1,"WHITE",1,"M","Y","2012-08-05","2012-09-01","Placebo",0,"Placebo",0,"PULSE","Pulse Rate (BEATS/MIN)",3,"2012-08-05",1,817,"AFTER STANDING FOR 3 MINUTES","Baseline",0,76,76,0,0,3,"BASELINE",31,"Y","Y"],["CDISCPILOT01","701","01-701-1023",64,"<65",1,"WHITE",1,"M","Y","2012-08-05","2012-09-01","Placebo",0,"Placebo",0,"PULSE","Pulse Rate (BEATS/MIN)",3,"2012-08-26",22,817,"AFTER STANDING FOR 3 MINUTES","",null,77,76,1,1.31578947368,3.5,"AMBUL ECG PLACEMENT",34,"",""],["CDISCPILOT01","701","01-701-1023",64,"<65",1,"WHITE",1,"M","Y","2012-08-05","2012-09-01","Placebo",0,"Placebo",0,"PULSE","Pulse Rate (BEATS/MIN)",3,"2012-08-27",23,817,"AFTER STANDING FOR 3 MINUTES","Week 2",2,94,76,18,23.6842105263,4,"WEEK 2",37,"Y",""],["CDISCPILOT01","701","01-701-1023",64,"<65",1,"WHITE",1,"M","Y","2012-08-05","2012-09-01","Placebo",0,"Placebo",0,"PULSE","Pulse Rate (BEATS/MIN)",3,"2012-09-02",29,817,"AFTER STANDING FOR 3 MINUTES","Week 4",4,70,76,-6,-7.89473684211,5,"WEEK 4",40,"Y",""],["CDISCPILOT01","701","01-701-1023",64,"<65",1,"WHITE",1,"M","Y","2012-08-05","2012-09-01","Placebo",0,"Placebo",0,"PULSE","Pulse Rate (BEATS/MIN)",3,"2012-09-02",29,817,"AFTER STANDING FOR 3 MINUTES","End of Treatment",99,70,76,-6,-7.89473684211,5,"WEEK 4",40,"Y",""],["CDISCPILOT01","701","01-701-1023",64,"<65",1,"WHITE",1,"M","Y","2012-08-05","2012-09-01","Placebo",0,"Placebo",0,"PULSE","Pulse Rate (BEATS/MIN)",3,"2013-02-18",198,817,"AFTER STANDING FOR 3 MINUTES","",null,76,76,0,0,201,"RETRIEVAL",43,"",""],["CDISCPILOT01","701","01-701-1023",64,"<65",1,"WHITE",1,"M","Y","2012-08-05","2012-09-01","Placebo",0,"Placebo",0,"SYSBP","Systolic Blood Pressure (mmHg)",1,"2012-07-22",-14,815,"AFTER LYING DOWN FOR 5 MINUTES","",null,130,130,0,0,1,"SCREENING 1",44,"",""],["CDISCPILOT01","701","01-701-1023",64,"<65",1,"WHITE",1,"M","Y","2012-08-05","2012-09-01","Placebo",0,"Placebo",0,"SYSBP","Systolic Blood Pressure (mmHg)",1,"2012-08-03",-2,815,"AFTER LYING DOWN FOR 5 MINUTES","",null,131,130,1,0.769230769231,2,"SCREENING 2",47,"",""],["CDISCPILOT01","701","01-701-1023",64,"<65",1,"WHITE",1,"M","Y","2012-08-05","2012-09-01","Placebo",0,"Placebo",0,"SYSBP","Systolic Blood Pressure (mmHg)",1,"2012-08-05",1,815,"AFTER LYING DOWN FOR 5 MINUTES","Baseline",0,130,130,0,0,3,"BASELINE",50,"Y","Y"],["CDISCPILOT01","701","01-701-1023",64,"<65",1,"WHITE",1,"M","Y","2012-08-05","2012-09-01","Placebo",0,"Placebo",0,"SYSBP","Systolic Blood Pressure (mmHg)",1,"2012-08-26",22,815,"AFTER LYING DOWN FOR 5 MINUTES","",null,133,130,3,2.30769230769,3.5,"AMBUL ECG PLACEMENT",53,"",""],["CDISCPILOT01","701","01-701-1023",64,"<65",1,"WHITE",1,"M","Y","2012-08-05","2012-09-01","Placebo",0,"Placebo",0,"SYSBP","Systolic Blood Pressure (mmHg)",1,"2012-08-27",23,815,"AFTER LYING DOWN FOR 5 MINUTES","Week 2",2,122,130,-8,-6.15384615385,4,"WEEK 2",56,"Y",""],["CDISCPILOT01","701","01-701-1023",64,"<65",1,"WHITE",1,"M","Y","2012-08-05","2012-09-01","Placebo",0,"Placebo",0,"SYSBP","Systolic Blood Pressure (mmHg)",1,"2012-09-02",29,815,"AFTER LYING DOWN FOR 5 MINUTES","Week 4",4,130,130,0,0,5,"WEEK 4",59,"Y",""],["CDISCPILOT01","701","01-701-1023",64,"<65",1,"WHITE",1,"M","Y","2012-08-05","2012-09-01","Placebo",0,"Placebo",0,"SYSBP","Systolic Blood Pressure (mmHg)",1,"2012-09-02",29,815,"AFTER LYING DOWN FOR 5 MINUTES","End of Treatment",99,130,130,0,0,5,"WEEK 4",59,"Y",""],["CDISCPILOT01","701","01-701-1023",64,"<65",1,"WHITE",1,"M","Y","2012-08-05","2012-09-01","Placebo",0,"Placebo",0,"SYSBP","Systolic Blood Pressure (mmHg)",1,"2013-02-18",198,815,"AFTER LYING DOWN FOR 5 MINUTES","",null,125,130,-5,-3.84615384615,201,"RETRIEVAL",62,"",""],["CDISCPILOT01","701","01-701-1023",64,"<65",1,"WHITE",1,"M","Y","2012-08-05","2012-09-01","Placebo",0,"Placebo",0,"SYSBP","Systolic Blood Pressure (mmHg)",1,"2012-07-22",-14,816,"AFTER STANDING FOR 1 MINUTE","",null,132,132,0,0,1,"SCREENING 1",45,"",""],["CDISCPILOT01","701","01-701-1023",64,"<65",1,"WHITE",1,"M","Y","2012-08-05","2012-09-01","Placebo",0,"Placebo",0,"SYSBP","Systolic Blood Pressure (mmHg)",1,"2012-08-03",-2,816,"AFTER STANDING FOR 1 MINUTE","",null,129,132,-3,-2.27272727273,2,"SCREENING 2",48,"",""],["CDISCPILOT01","701","01-701-1023",64,"<65",1,"WHITE",1,"M","Y","2012-08-05","2012-09-01","Placebo",0,"Placebo",0,"SYSBP","Systolic Blood Pressure (mmHg)",1,"2012-08-05",1,816,"AFTER STANDING FOR 1 MINUTE","Baseline",0,132,132,0,0,3,"BASELINE",51,"Y","Y"],["CDISCPILOT01","701","01-701-1023",64,"<65",1,"WHITE",1,"M","Y","2012-08-05","2012-09-01","Placebo",0,"Placebo",0,"SYSBP","Systolic Blood Pressure (mmHg)",1,"2012-08-26",22,816,"AFTER STANDING FOR 1 MINUTE","",null,130,132,-2,-1.51515151515,3.5,"AMBUL ECG PLACEMENT",54,"",""],["CDISCPILOT01","701","01-701-1023",64,"<65",1,"WHITE",1,"M","Y","2012-08-05","2012-09-01","Placebo",0,"Placebo",0,"SYSBP","Systolic Blood Pressure (mmHg)",1,"2012-08-27",23,816,"AFTER STANDING FOR 1 MINUTE","Week 2",2,130,132,-2,-1.51515151515,4,"WEEK 2",57,"Y",""],["CDISCPILOT01","701","01-701-1023",64,"<65",1,"WHITE",1,"M","Y","2012-08-05","2012-09-01","Placebo",0,"Placebo",0,"SYSBP","Systolic Blood Pressure (mmHg)",1,"2012-09-02",29,816,"AFTER STANDING FOR 1 MINUTE","Week 4",4,134,132,2,1.51515151515,5,"WEEK 4",60,"Y",""],["CDISCPILOT01","701","01-701-1023",64,"<65",1,"WHITE",1,"M","Y","2012-08-05","2012-09-01","Placebo",0,"Placebo",0,"SYSBP","Systolic Blood Pressure (mmHg)",1,"2012-09-02",29,816,"AFTER STANDING FOR 1 MINUTE","End of Treatment",99,134,132,2,1.51515151515,5,"WEEK 4",60,"Y",""],["CDISCPILOT01","701","01-701-1023",64,"<65",1,"WHITE",1,"M","Y","2012-08-05","2012-09-01","Placebo",0,"Placebo",0,"SYSBP","Systolic Blood Pressure (mmHg)",1,"2013-02-18",198,816,"AFTER STANDING FOR 1 MINUTE","",null,110,132,-22,-16.6666666667,201,"RETRIEVAL",63,"",""],["CDISCPILOT01","701","01-701-1023",64,"<65",1,"WHITE",1,"M","Y","2012-08-05","2012-09-01","Placebo",0,"Placebo",0,"SYSBP","Systolic Blood Pressure (mmHg)",1,"2012-07-22",-14,817,"AFTER STANDING FOR 3 MINUTES","",null,140,132,8,6.06060606061,1,"SCREENING 1",46,"",""],["CDISCPILOT01","701","01-701-1023",64,"<65",1,"WHITE",1,"M","Y","2012-08-05","2012-09-01","Placebo",0,"Placebo",0,"SYSBP","Systolic Blood Pressure (mmHg)",1,"2012-08-03",-2,817,"AFTER STANDING FOR 3 MINUTES","",null,138,132,6,4.54545454545,2,"SCREENING 2",49,"",""],["CDISCPILOT01","701","01-701-1023",64,"<65",1,"WHITE",1,"M","Y","2012-08-05","2012-09-01","Placebo",0,"Placebo",0,"SYSBP","Systolic Blood Pressure (mmHg)",1,"2012-08-05",1,817,"AFTER STANDING FOR 3 MINUTES","Baseline",0,132,132,0,0,3,"BASELINE",52,"Y","Y"],["CDISCPILOT01","701","01-701-1023",64,"<65",1,"WHITE",1,"M","Y","2012-08-05","2012-09-01","Placebo",0,"Placebo",0,"SYSBP","Systolic Blood Pressure (mmHg)",1,"2012-08-26",22,817,"AFTER STANDING FOR 3 MINUTES","",null,138,132,6,4.54545454545,3.5,"AMBUL ECG PLACEMENT",55,"",""],["CDISCPILOT01","701","01-701-1023",64,"<65",1,"WHITE",1,"M","Y","2012-08-05","2012-09-01","Placebo",0,"Placebo",0,"SYSBP","Systolic Blood Pressure (mmHg)",1,"2012-08-27",23,817,"AFTER STANDING FOR 3 MINUTES","Week 2",2,138,132,6,4.54545454545,4,"WEEK 2",58,"Y",""],["CDISCPILOT01","701","01-701-1023",64,"<65",1,"WHITE",1,"M","Y","2012-08-05","2012-09-01","Placebo",0,"Placebo",0,"SYSBP","Systolic Blood Pressure (mmHg)",1,"2012-09-02",29,817,"AFTER STANDING FOR 3 MINUTES","Week 4",4,136,132,4,3.0303030303,5,"WEEK 4",61,"Y",""],["CDISCPILOT01","701","01-701-1023",64,"<65",1,"WHITE",1,"M","Y","2012-08-05","2012-09-01","Placebo",0,"Placebo",0,"SYSBP","Systolic Blood Pressure (mmHg)",1,"2012-09-02",29,817,"AFTER STANDING FOR 3 MINUTES","End of Treatment",99,136,132,4,3.0303030303,5,"WEEK 4",61,"Y",""],["CDISCPILOT01","701","01-701-1023",64,"<65",1,"WHITE",1,"M","Y","2012-08-05","2012-09-01","Placebo",0,"Placebo",0,"SYSBP","Systolic Blood Pressure (mmHg)",1,"2013-02-18",198,817,"AFTER STANDING FOR 3 MINUTES","",null,130,132,-2,-1.51515151515,201,"RETRIEVAL",64,"",""],["CDISCPILOT01","701","01-701-1023",64,"<65",1,"WHITE",1,"M","Y","2012-08-05","2012-09-01","Placebo",0,"Placebo",0,"TEMP","Temperature (C)",6,"2012-07-22",-14,null,"","",null,36.56,36.28,0.28,0.77177508269,1,"SCREENING 1",65,"",""],["CDISCPILOT01","701","01-701-1023",64,"<65",1,"WHITE",1,"M","Y","2012-08-05","2012-09-01","Placebo",0,"Placebo",0,"TEMP","Temperature (C)",6,"2012-08-03",-2,null,"","",null,36.56,36.28,0.28,0.77177508269,2,"SCREENING 2",66,"",""],["CDISCPILOT01","701","01-701-1023",64,"<65",1,"WHITE",1,"M","Y","2012-08-05","2012-09-01","Placebo",0,"Placebo",0,"TEMP","Temperature (C)",6,"2012-08-05",1,null,"","Baseline",0,36.28,36.28,0,0,3,"BASELINE",67,"Y","Y"],["CDISCPILOT01","701","01-701-1023",64,"<65",1,"WHITE",1,"M","Y","2012-08-05","2012-09-01","Placebo",0,"Placebo",0,"TEMP","Temperature (C)",6,"2012-08-26",22,null,"","",null,36.44,36.28,0.16,0.441014332966,3.5,"AMBUL ECG PLACEMENT",68,"",""],["CDISCPILOT01","701","01-701-1023",64,"<65",1,"WHITE",1,"M","Y","2012-08-05","2012-09-01","Placebo",0,"Placebo",0,"TEMP","Temperature (C)",6,"2012-08-27",23,null,"","Week 2",2,36.94,36.28,0.66,1.81918412348,4,"WEEK 2",69,"Y",""],["CDISCPILOT01","701","01-701-1023",64,"<65",1,"WHITE",1,"M","Y","2012-08-05","2012-09-01","Placebo",0,"Placebo",0,"TEMP","Temperature (C)",6,"2012-09-02",29,null,"","Week 4",4,36.22,36.28,-0.06,-0.165380374862,5,"WEEK 4",70,"Y",""],["CDISCPILOT01","701","01-701-1023",64,"<65",1,"WHITE",1,"M","Y","2012-08-05","2012-09-01","Placebo",0,"Placebo",0,"TEMP","Temperature (C)",6,"2012-09-02",29,null,"","End of Treatment",99,36.22,36.28,-0.06,-0.165380374862,5,"WEEK 4",70,"Y",""],["CDISCPILOT01","701","01-701-1023",64,"<65",1,"WHITE",1,"M","Y","2012-08-05","2012-09-01","Placebo",0,"Placebo",0,"TEMP","Temperature (C)",6,"2013-02-18",198,null,"","",null,36.56,36.28,0.28,0.77177508269,201,"RETRIEVAL",71,"",""],["CDISCPILOT01","701","01-701-1023",64,"<65",1,"WHITE",1,"M","Y","2012-08-05","2012-09-01","Placebo",0,"Placebo",0,"WEIGHT","Weight (kg)",4,"2012-07-22",-14,null,"","",null,78.47,80.29,-1.82,-2.26678291194,1,"SCREENING 1",72,"",""],["CDISCPILOT01","701","01-701-1023",64,"<65",1,"WHITE",1,"M","Y","2012-08-05","2012-09-01","Placebo",0,"Placebo",0,"WEIGHT","Weight (kg)",4,"2012-08-05",1,null,"","Baseline",0,80.29,80.29,0,0,3,"BASELINE",73,"Y","Y"],["CDISCPILOT01","701","01-701-1023",64,"<65",1,"WHITE",1,"M","Y","2012-08-05","2012-09-01","Placebo",0,"Placebo",0,"WEIGHT","Weight (kg)",4,"2012-08-27",23,null,"","Week 2",2,80.74,80.29,0.45,0.560468302404,4,"WEEK 2",74,"Y",""],["CDISCPILOT01","701","01-701-1023",64,"<65",1,"WHITE",1,"M","Y","2012-08-05","2012-09-01","Placebo",0,"Placebo",0,"WEIGHT","Weight (kg)",4,"2012-09-02",29,null,"","Week 4",4,80.29,80.29,0,0,5,"WEEK 4",75,"Y",""],["CDISCPILOT01","701","01-701-1023",64,"<65",1,"WHITE",1,"M","Y","2012-08-05","2012-09-01","Placebo",0,"Placebo",0,"WEIGHT","Weight (kg)",4,"2012-09-02",29,null,"","End of Treatment",99,80.29,80.29,0,0,5,"WEEK 4",75,"Y",""],["CDISCPILOT01","701","01-701-1028",71,"65-80",2,"WHITE",1,"M","Y","2013-07-19","2014-01-14","Xanomeline High Dose",81,"Xanomeline High Dose",81,"DIABP","Diastolic Blood Pressure (mmHg)",2,"2013-07-11",-8,815,"AFTER LYING DOWN FOR 5 MINUTES","",null,76,85,-9,-10.5882352941,1,"SCREENING 1",1,"",""],["CDISCPILOT01","701","01-701-1028",71,"65-80",2,"WHITE",1,"M","Y","2013-07-19","2014-01-14","Xanomeline High Dose",81,"Xanomeline High Dose",81,"DIABP","Diastolic Blood Pressure (mmHg)",2,"2013-07-17",-2,815,"AFTER LYING DOWN FOR 5 MINUTES","",null,76,85,-9,-10.5882352941,2,"SCREENING 2",4,"",""],["CDISCPILOT01","701","01-701-1028",71,"65-80",2,"WHITE",1,"M","Y","2013-07-19","2014-01-14","Xanomeline High Dose",81,"Xanomeline High Dose",81,"DIABP","Diastolic Blood Pressure (mmHg)",2,"2013-07-19",1,815,"AFTER LYING DOWN FOR 5 MINUTES","Baseline",0,85,85,0,0,3,"BASELINE",7,"Y","Y"],["CDISCPILOT01","701","01-701-1028",71,"65-80",2,"WHITE",1,"M","Y","2013-07-19","2014-01-14","Xanomeline High Dose",81,"Xanomeline High Dose",81,"DIABP","Diastolic Blood Pressure (mmHg)",2,"2013-07-31",13,815,"AFTER LYING DOWN FOR 5 MINUTES","",null,82,85,-3,-3.52941176471,3.5,"AMBUL ECG PLACEMENT",10,"",""],["CDISCPILOT01","701","01-701-1028",71,"65-80",2,"WHITE",1,"M","Y","2013-07-19","2014-01-14","Xanomeline High Dose",81,"Xanomeline High Dose",81,"DIABP","Diastolic Blood Pressure (mmHg)",2,"2013-08-01",14,815,"AFTER LYING DOWN FOR 5 MINUTES","Week 2",2,78,85,-7,-8.23529411765,4,"WEEK 2",13,"Y",""],["CDISCPILOT01","701","01-701-1028",71,"65-80",2,"WHITE",1,"M","Y","2013-07-19","2014-01-14","Xanomeline High Dose",81,"Xanomeline High Dose",81,"DIABP","Diastolic Blood Pressure (mmHg)",2,"2013-08-14",27,815,"AFTER LYING DOWN FOR 5 MINUTES","Week 4",4,69,85,-16,-18.8235294118,5,"WEEK 4",16,"Y",""],["CDISCPILOT01","701","01-701-1028",71,"65-80",2,"WHITE",1,"M","Y","2013-07-19","2014-01-14","Xanomeline High Dose",81,"Xanomeline High Dose",81,"DIABP","Diastolic Blood Pressure (mmHg)",2,"2013-08-16",29,815,"AFTER LYING DOWN FOR 5 MINUTES","",null,76,85,-9,-10.5882352941,6,"AMBUL ECG REMOVAL",19,"",""],["CDISCPILOT01","701","01-701-1028",71,"65-80",2,"WHITE",1,"M","Y","2013-07-19","2014-01-14","Xanomeline High Dose",81,"Xanomeline High Dose",81,"DIABP","Diastolic Blood Pressure (mmHg)",2,"2013-08-29",42,815,"AFTER LYING DOWN FOR 5 MINUTES","Week 6",6,69,85,-16,-18.8235294118,7,"WEEK 6",22,"Y",""],["CDISCPILOT01","701","01-701-1028",71,"65-80",2,"WHITE",1,"M","Y","2013-07-19","2014-01-14","Xanomeline High Dose",81,"Xanomeline High Dose",81,"DIABP","Diastolic Blood Pressure (mmHg)",2,"2013-09-10",54,815,"AFTER LYING DOWN FOR 5 MINUTES","Week 8",8,76,85,-9,-10.5882352941,8,"WEEK 8",25,"Y",""],["CDISCPILOT01","701","01-701-1028",71,"65-80",2,"WHITE",1,"M","Y","2013-07-19","2014-01-14","Xanomeline High Dose",81,"Xanomeline High Dose",81,"DIABP","Diastolic Blood Pressure (mmHg)",2,"2013-10-09",83,815,"AFTER LYING DOWN FOR 5 MINUTES","Week 12",12,74,85,-11,-12.9411764706,9,"WEEK 12",28,"Y",""],["CDISCPILOT01","701","01-701-1028",71,"65-80",2,"WHITE",1,"M","Y","2013-07-19","2014-01-14","Xanomeline High Dose",81,"Xanomeline High Dose",81,"DIABP","Diastolic Blood Pressure (mmHg)",2,"2013-11-06",111,815,"AFTER LYING DOWN FOR 5 MINUTES","Week 16",16,75,85,-10,-11.7647058824,10,"WEEK 16",31,"Y",""],["CDISCPILOT01","701","01-701-1028",71,"65-80",2,"WHITE",1,"M","Y","2013-07-19","2014-01-14","Xanomeline High Dose",81,"Xanomeline High Dose",81,"DIABP","Diastolic Blood Pressure (mmHg)",2,"2013-12-04",139,815,"AFTER LYING DOWN FOR 5 MINUTES","Week 20",20,79,85,-6,-7.05882352941,11,"WEEK 20",34,"Y",""],["CDISCPILOT01","701","01-701-1028",71,"65-80",2,"WHITE",1,"M","Y","2013-07-19","2014-01-14","Xanomeline High Dose",81,"Xanomeline High Dose",81,"DIABP","Diastolic Blood Pressure (mmHg)",2,"2014-01-06",172,815,"AFTER LYING DOWN FOR 5 MINUTES","Week 24",24,73,85,-12,-14.1176470588,12,"WEEK 24",37,"Y",""],["CDISCPILOT01","701","01-701-1028",71,"65-80",2,"WHITE",1,"M","Y","2013-07-19","2014-01-14","Xanomeline High Dose",81,"Xanomeline High Dose",81,"DIABP","Diastolic Blood Pressure (mmHg)",2,"2014-01-14",180,815,"AFTER LYING DOWN FOR 5 MINUTES","Week 26",26,70,85,-15,-17.6470588235,13,"WEEK 26",40,"Y",""],["CDISCPILOT01","701","01-701-1028",71,"65-80",2,"WHITE",1,"M","Y","2013-07-19","2014-01-14","Xanomeline High Dose",81,"Xanomeline High Dose",81,"DIABP","Diastolic Blood Pressure (mmHg)",2,"2014-01-14",180,815,"AFTER LYING DOWN FOR 5 MINUTES","End of Treatment",99,70,85,-15,-17.6470588235,13,"WEEK 26",40,"Y",""],["CDISCPILOT01","701","01-701-1028",71,"65-80",2,"WHITE",1,"M","Y","2013-07-19","2014-01-14","Xanomeline High Dose",81,"Xanomeline High Dose",81,"DIABP","Diastolic Blood Pressure (mmHg)",2,"2013-07-11",-8,816,"AFTER STANDING FOR 1 MINUTE","",null,70,76,-6,-7.89473684211,1,"SCREENING 1",2,"",""],["CDISCPILOT01","701","01-701-1028",71,"65-80",2,"WHITE",1,"M","Y","2013-07-19","2014-01-14","Xanomeline High Dose",81,"Xanomeline High Dose",81,"DIABP","Diastolic Blood Pressure (mmHg)",2,"2013-07-17",-2,816,"AFTER STANDING FOR 1 MINUTE","",null,76,76,0,0,2,"SCREENING 2",5,"",""],["CDISCPILOT01","701","01-701-1028",71,"65-80",2,"WHITE",1,"M","Y","2013-07-19","2014-01-14","Xanomeline High Dose",81,"Xanomeline High Dose",81,"DIABP","Diastolic Blood Pressure (mmHg)",2,"2013-07-19",1,816,"AFTER STANDING FOR 1 MINUTE","Baseline",0,76,76,0,0,3,"BASELINE",8,"Y","Y"],["CDISCPILOT01","701","01-701-1028",71,"65-80",2,"WHITE",1,"M","Y","2013-07-19","2014-01-14","Xanomeline High Dose",81,"Xanomeline High Dose",81,"DIABP","Diastolic Blood Pressure (mmHg)",2,"2013-07-31",13,816,"AFTER STANDING FOR 1 MINUTE","",null,82,76,6,7.89473684211,3.5,"AMBUL ECG PLACEMENT",11,"",""],["CDISCPILOT01","701","01-701-1028",71,"65-80",2,"WHITE",1,"M","Y","2013-07-19","2014-01-14","Xanomeline High Dose",81,"Xanomeline High Dose",81,"DIABP","Diastolic Blood Pressure (mmHg)",2,"2013-08-01",14,816,"AFTER STANDING FOR 1 MINUTE","Week 2",2,80,76,4,5.26315789474,4,"WEEK 2",14,"Y",""],["CDISCPILOT01","701","01-701-1028",71,"65-80",2,"WHITE",1,"M","Y","2013-07-19","2014-01-14","Xanomeline High Dose",81,"Xanomeline High Dose",81,"DIABP","Diastolic Blood Pressure (mmHg)",2,"2013-08-14",27,816,"AFTER STANDING FOR 1 MINUTE","Week 4",4,72,76,-4,-5.26315789474,5,"WEEK 4",17,"Y",""],["CDISCPILOT01","701","01-701-1028",71,"65-80",2,"WHITE",1,"M","Y","2013-07-19","2014-01-14","Xanomeline High Dose",81,"Xanomeline High Dose",81,"DIABP","Diastolic Blood Pressure (mmHg)",2,"2013-08-16",29,816,"AFTER STANDING FOR 1 MINUTE","",null,85,76,9,11.8421052632,6,"AMBUL ECG REMOVAL",20,"",""],["CDISCPILOT01","701","01-701-1028",71,"65-80",2,"WHITE",1,"M","Y","2013-07-19","2014-01-14","Xanomeline High Dose",81,"Xanomeline High Dose",81,"DIABP","Diastolic Blood Pressure (mmHg)",2,"2013-08-29",42,816,"AFTER STANDING FOR 1 MINUTE","Week 6",6,77,76,1,1.31578947368,7,"WEEK 6",23,"Y",""],["CDISCPILOT01","701","01-701-1028",71,"65-80",2,"WHITE",1,"M","Y","2013-07-19","2014-01-14","Xanomeline High Dose",81,"Xanomeline High Dose",81,"DIABP","Diastolic Blood Pressure (mmHg)",2,"2013-09-10",54,816,"AFTER STANDING FOR 1 MINUTE","Week 8",8,81,76,5,6.57894736842,8,"WEEK 8",26,"Y",""],["CDISCPILOT01","701","01-701-1028",71,"65-80",2,"WHITE",1,"M","Y","2013-07-19","2014-01-14","Xanomeline High Dose",81,"Xanomeline High Dose",81,"DIABP","Diastolic Blood Pressure (mmHg)",2,"2013-10-09",83,816,"AFTER STANDING FOR 1 MINUTE","Week 12",12,83,76,7,9.21052631579,9,"WEEK 12",29,"Y",""],["CDISCPILOT01","701","01-701-1028",71,"65-80",2,"WHITE",1,"M","Y","2013-07-19","2014-01-14","Xanomeline High Dose",81,"Xanomeline High Dose",81,"DIABP","Diastolic Blood Pressure (mmHg)",2,"2013-11-06",111,816,"AFTER STANDING FOR 1 MINUTE","Week 16",16,76,76,0,0,10,"WEEK 16",32,"Y",""],["CDISCPILOT01","701","01-701-1028",71,"65-80",2,"WHITE",1,"M","Y","2013-07-19","2014-01-14","Xanomeline High Dose",81,"Xanomeline High Dose",81,"DIABP","Diastolic Blood Pressure (mmHg)",2,"2013-12-04",139,816,"AFTER STANDING FOR 1 MINUTE","Week 20",20,76,76,0,0,11,"WEEK 20",35,"Y",""],["CDISCPILOT01","701","01-701-1028",71,"65-80",2,"WHITE",1,"M","Y","2013-07-19","2014-01-14","Xanomeline High Dose",81,"Xanomeline High Dose",81,"DIABP","Diastolic Blood Pressure (mmHg)",2,"2014-01-06",172,816,"AFTER STANDING FOR 1 MINUTE","Week 24",24,72,76,-4,-5.26315789474,12,"WEEK 24",38,"Y",""],["CDISCPILOT01","701","01-701-1028",71,"65-80",2,"WHITE",1,"M","Y","2013-07-19","2014-01-14","Xanomeline High Dose",81,"Xanomeline High Dose",81,"DIABP","Diastolic Blood Pressure (mmHg)",2,"2014-01-14",180,816,"AFTER STANDING FOR 1 MINUTE","Week 26",26,79,76,3,3.94736842105,13,"WEEK 26",41,"Y",""],["CDISCPILOT01","701","01-701-1028",71,"65-80",2,"WHITE",1,"M","Y","2013-07-19","2014-01-14","Xanomeline High Dose",81,"Xanomeline High Dose",81,"DIABP","Diastolic Blood Pressure (mmHg)",2,"2014-01-14",180,816,"AFTER STANDING FOR 1 MINUTE","End of Treatment",99,79,76,3,3.94736842105,13,"WEEK 26",41,"Y",""],["CDISCPILOT01","701","01-701-1028",71,"65-80",2,"WHITE",1,"M","Y","2013-07-19","2014-01-14","Xanomeline High Dose",81,"Xanomeline High Dose",81,"DIABP","Diastolic Blood Pressure (mmHg)",2,"2013-07-11",-8,817,"AFTER STANDING FOR 3 MINUTES","",null,73,75,-2,-2.66666666667,1,"SCREENING 1",3,"",""],["CDISCPILOT01","701","01-701-1028",71,"65-80",2,"WHITE",1,"M","Y","2013-07-19","2014-01-14","Xanomeline High Dose",81,"Xanomeline High Dose",81,"DIABP","Diastolic Blood Pressure (mmHg)",2,"2013-07-17",-2,817,"AFTER STANDING FOR 3 MINUTES","",null,85,75,10,13.3333333333,2,"SCREENING 2",6,"",""],["CDISCPILOT01","701","01-701-1028",71,"65-80",2,"WHITE",1,"M","Y","2013-07-19","2014-01-14","Xanomeline High Dose",81,"Xanomeline High Dose",81,"DIABP","Diastolic Blood Pressure (mmHg)",2,"2013-07-19",1,817,"AFTER STANDING FOR 3 MINUTES","Baseline",0,75,75,0,0,3,"BASELINE",9,"Y","Y"],["CDISCPILOT01","701","01-701-1028",71,"65-80",2,"WHITE",1,"M","Y","2013-07-19","2014-01-14","Xanomeline High Dose",81,"Xanomeline High Dose",81,"DIABP","Diastolic Blood Pressure (mmHg)",2,"2013-07-31",13,817,"AFTER STANDING FOR 3 MINUTES","",null,84,75,9,12,3.5,"AMBUL ECG PLACEMENT",12,"",""],["CDISCPILOT01","701","01-701-1028",71,"65-80",2,"WHITE",1,"M","Y","2013-07-19","2014-01-14","Xanomeline High Dose",81,"Xanomeline High Dose",81,"DIABP","Diastolic Blood Pressure (mmHg)",2,"2013-08-01",14,817,"AFTER STANDING FOR 3 MINUTES","Week 2",2,80,75,5,6.66666666667,4,"WEEK 2",15,"Y",""],["CDISCPILOT01","701","01-701-1028",71,"65-80",2,"WHITE",1,"M","Y","2013-07-19","2014-01-14","Xanomeline High Dose",81,"Xanomeline High Dose",81,"DIABP","Diastolic Blood Pressure (mmHg)",2,"2013-08-14",27,817,"AFTER STANDING FOR 3 MINUTES","Week 4",4,68,75,-7,-9.33333333333,5,"WEEK 4",18,"Y",""],["CDISCPILOT01","701","01-701-1028",71,"65-80",2,"WHITE",1,"M","Y","2013-07-19","2014-01-14","Xanomeline High Dose",81,"Xanomeline High Dose",81,"DIABP","Diastolic Blood Pressure (mmHg)",2,"2013-08-16",29,817,"AFTER STANDING FOR 3 MINUTES","",null,81,75,6,8,6,"AMBUL ECG REMOVAL",21,"",""],["CDISCPILOT01","701","01-701-1028",71,"65-80",2,"WHITE",1,"M","Y","2013-07-19","2014-01-14","Xanomeline High Dose",81,"Xanomeline High Dose",81,"DIABP","Diastolic Blood Pressure (mmHg)",2,"2013-08-29",42,817,"AFTER STANDING FOR 3 MINUTES","Week 6",6,76,75,1,1.33333333333,7,"WEEK 6",24,"Y",""],["CDISCPILOT01","701","01-701-1028",71,"65-80",2,"WHITE",1,"M","Y","2013-07-19","2014-01-14","Xanomeline High Dose",81,"Xanomeline High Dose",81,"DIABP","Diastolic Blood Pressure (mmHg)",2,"2013-09-10",54,817,"AFTER STANDING FOR 3 MINUTES","Week 8",8,84,75,9,12,8,"WEEK 8",27,"Y",""],["CDISCPILOT01","701","01-701-1028",71,"65-80",2,"WHITE",1,"M","Y","2013-07-19","2014-01-14","Xanomeline High Dose",81,"Xanomeline High Dose",81,"DIABP","Diastolic Blood Pressure (mmHg)",2,"2013-10-09",83,817,"AFTER STANDING FOR 3 MINUTES","Week 12",12,80,75,5,6.66666666667,9,"WEEK 12",30,"Y",""],["CDISCPILOT01","701","01-701-1028",71,"65-80",2,"WHITE",1,"M","Y","2013-07-19","2014-01-14","Xanomeline High Dose",81,"Xanomeline High Dose",81,"DIABP","Diastolic Blood Pressure (mmHg)",2,"2013-11-06",111,817,"AFTER STANDING FOR 3 MINUTES","Week 16",16,78,75,3,4,10,"WEEK 16",33,"Y",""],["CDISCPILOT01","701","01-701-1028",71,"65-80",2,"WHITE",1,"M","Y","2013-07-19","2014-01-14","Xanomeline High Dose",81,"Xanomeline High Dose",81,"DIABP","Diastolic Blood Pressure (mmHg)",2,"2013-12-04",139,817,"AFTER STANDING FOR 3 MINUTES","Week 20",20,77,75,2,2.66666666667,11,"WEEK 20",36,"Y",""],["CDISCPILOT01","701","01-701-1028",71,"65-80",2,"WHITE",1,"M","Y","2013-07-19","2014-01-14","Xanomeline High Dose",81,"Xanomeline High Dose",81,"DIABP","Diastolic Blood Pressure (mmHg)",2,"2014-01-06",172,817,"AFTER STANDING FOR 3 MINUTES","Week 24",24,77,75,2,2.66666666667,12,"WEEK 24",39,"Y",""],["CDISCPILOT01","701","01-701-1028",71,"65-80",2,"WHITE",1,"M","Y","2013-07-19","2014-01-14","Xanomeline High Dose",81,"Xanomeline High Dose",81,"DIABP","Diastolic Blood Pressure (mmHg)",2,"2014-01-14",180,817,"AFTER STANDING FOR 3 MINUTES","Week 26",26,77,75,2,2.66666666667,13,"WEEK 26",42,"Y",""],["CDISCPILOT01","701","01-701-1028",71,"65-80",2,"WHITE",1,"M","Y","2013-07-19","2014-01-14","Xanomeline High Dose",81,"Xanomeline High Dose",81,"DIABP","Diastolic Blood Pressure (mmHg)",2,"2014-01-14",180,817,"AFTER STANDING FOR 3 MINUTES","End of Treatment",99,77,75,2,2.66666666667,13,"WEEK 26",42,"Y",""],["CDISCPILOT01","701","01-701-1028",71,"65-80",2,"WHITE",1,"M","Y","2013-07-19","2014-01-14","Xanomeline High Dose",81,"Xanomeline High Dose",81,"HEIGHT","Height (cm)",5,"2013-07-11",-8,null,"","",null,177.8,null,null,null,1,"SCREENING 1",43,"",""],["CDISCPILOT01","701","01-701-1028",71,"65-80",2,"WHITE",1,"M","Y","2013-07-19","2014-01-14","Xanomeline High Dose",81,"Xanomeline High Dose",81,"PULSE","Pulse Rate (BEATS/MIN)",3,"2013-07-11",-8,815,"AFTER LYING DOWN FOR 5 MINUTES","",null,54,62,-8,-12.9032258065,1,"SCREENING 1",44,"",""],["CDISCPILOT01","701","01-701-1028",71,"65-80",2,"WHITE",1,"M","Y","2013-07-19","2014-01-14","Xanomeline High Dose",81,"Xanomeline High Dose",81,"PULSE","Pulse Rate (BEATS/MIN)",3,"2013-07-17",-2,815,"AFTER LYING DOWN FOR 5 MINUTES","",null,68,62,6,9.67741935484,2,"SCREENING 2",47,"",""],["CDISCPILOT01","701","01-701-1028",71,"65-80",2,"WHITE",1,"M","Y","2013-07-19","2014-01-14","Xanomeline High Dose",81,"Xanomeline High Dose",81,"PULSE","Pulse Rate (BEATS/MIN)",3,"2013-07-19",1,815,"AFTER LYING DOWN FOR 5 MINUTES","Baseline",0,62,62,0,0,3,"BASELINE",50,"Y","Y"],["CDISCPILOT01","701","01-701-1028",71,"65-80",2,"WHITE",1,"M","Y","2013-07-19","2014-01-14","Xanomeline High Dose",81,"Xanomeline High Dose",81,"PULSE","Pulse Rate (BEATS/MIN)",3,"2013-07-31",13,815,"AFTER LYING DOWN FOR 5 MINUTES","",null,60,62,-2,-3.22580645161,3.5,"AMBUL ECG PLACEMENT",53,"",""],["CDISCPILOT01","701","01-701-1028",71,"65-80",2,"WHITE",1,"M","Y","2013-07-19","2014-01-14","Xanomeline High Dose",81,"Xanomeline High Dose",81,"PULSE","Pulse Rate (BEATS/MIN)",3,"2013-08-01",14,815,"AFTER LYING DOWN FOR 5 MINUTES","Week 2",2,65,62,3,4.83870967742,4,"WEEK 2",56,"Y",""],["CDISCPILOT01","701","01-701-1028",71,"65-80",2,"WHITE",1,"M","Y","2013-07-19","2014-01-14","Xanomeline High Dose",81,"Xanomeline High Dose",81,"PULSE","Pulse Rate (BEATS/MIN)",3,"2013-08-14",27,815,"AFTER LYING DOWN FOR 5 MINUTES","Week 4",4,68,62,6,9.67741935484,5,"WEEK 4",59,"Y",""],["CDISCPILOT01","701","01-701-1028",71,"65-80",2,"WHITE",1,"M","Y","2013-07-19","2014-01-14","Xanomeline High Dose",81,"Xanomeline High Dose",81,"PULSE","Pulse Rate (BEATS/MIN)",3,"2013-08-16",29,815,"AFTER LYING DOWN FOR 5 MINUTES","",null,63,62,1,1.61290322581,6,"AMBUL ECG REMOVAL",62,"",""],["CDISCPILOT01","701","01-701-1028",71,"65-80",2,"WHITE",1,"M","Y","2013-07-19","2014-01-14","Xanomeline High Dose",81,"Xanomeline High Dose",81,"PULSE","Pulse Rate (BEATS/MIN)",3,"2013-08-29",42,815,"AFTER LYING DOWN FOR 5 MINUTES","Week 6",6,56,62,-6,-9.67741935484,7,"WEEK 6",65,"Y",""],["CDISCPILOT01","701","01-701-1028",71,"65-80",2,"WHITE",1,"M","Y","2013-07-19","2014-01-14","Xanomeline High Dose",81,"Xanomeline High Dose",81,"PULSE","Pulse Rate (BEATS/MIN)",3,"2013-09-10",54,815,"AFTER LYING DOWN FOR 5 MINUTES","Week 8",8,67,62,5,8.06451612903,8,"WEEK 8",68,"Y",""],["CDISCPILOT01","701","01-701-1028",71,"65-80",2,"WHITE",1,"M","Y","2013-07-19","2014-01-14","Xanomeline High Dose",81,"Xanomeline High Dose",81,"PULSE","Pulse Rate (BEATS/MIN)",3,"2013-10-09",83,815,"AFTER LYING DOWN FOR 5 MINUTES","Week 12",12,61,62,-1,-1.61290322581,9,"WEEK 12",71,"Y",""],["CDISCPILOT01","701","01-701-1028",71,"65-80",2,"WHITE",1,"M","Y","2013-07-19","2014-01-14","Xanomeline High Dose",81,"Xanomeline High Dose",81,"PULSE","Pulse Rate (BEATS/MIN)",3,"2013-11-06",111,815,"AFTER LYING DOWN FOR 5 MINUTES","Week 16",16,60,62,-2,-3.22580645161,10,"WEEK 16",74,"Y",""],["CDISCPILOT01","701","01-701-1028",71,"65-80",2,"WHITE",1,"M","Y","2013-07-19","2014-01-14","Xanomeline High Dose",81,"Xanomeline High Dose",81,"PULSE","Pulse Rate (BEATS/MIN)",3,"2013-12-04",139,815,"AFTER LYING DOWN FOR 5 MINUTES","Week 20",20,60,62,-2,-3.22580645161,11,"WEEK 20",77,"Y",""],["CDISCPILOT01","701","01-701-1028",71,"65-80",2,"WHITE",1,"M","Y","2013-07-19","2014-01-14","Xanomeline High Dose",81,"Xanomeline High Dose",81,"PULSE","Pulse Rate (BEATS/MIN)",3,"2014-01-06",172,815,"AFTER LYING DOWN FOR 5 MINUTES","Week 24",24,62,62,0,0,12,"WEEK 24",80,"Y",""],["CDISCPILOT01","701","01-701-1028",71,"65-80",2,"WHITE",1,"M","Y","2013-07-19","2014-01-14","Xanomeline High Dose",81,"Xanomeline High Dose",81,"PULSE","Pulse Rate (BEATS/MIN)",3,"2014-01-14",180,815,"AFTER LYING DOWN FOR 5 MINUTES","Week 26",26,53,62,-9,-14.5161290323,13,"WEEK 26",83,"Y",""],["CDISCPILOT01","701","01-701-1028",71,"65-80",2,"WHITE",1,"M","Y","2013-07-19","2014-01-14","Xanomeline High Dose",81,"Xanomeline High Dose",81,"PULSE","Pulse Rate (BEATS/MIN)",3,"2014-01-14",180,815,"AFTER LYING DOWN FOR 5 MINUTES","End of Treatment",99,53,62,-9,-14.5161290323,13,"WEEK 26",83,"Y",""],["CDISCPILOT01","701","01-701-1028",71,"65-80",2,"WHITE",1,"M","Y","2013-07-19","2014-01-14","Xanomeline High Dose",81,"Xanomeline High Dose",81,"PULSE","Pulse Rate (BEATS/MIN)",3,"2013-07-11",-8,816,"AFTER STANDING FOR 1 MINUTE","",null,59,62,-3,-4.83870967742,1,"SCREENING 1",45,"",""],["CDISCPILOT01","701","01-701-1028",71,"65-80",2,"WHITE",1,"M","Y","2013-07-19","2014-01-14","Xanomeline High Dose",81,"Xanomeline High Dose",81,"PULSE","Pulse Rate (BEATS/MIN)",3,"2013-07-17",-2,816,"AFTER STANDING FOR 1 MINUTE","",null,72,62,10,16.1290322581,2,"SCREENING 2",48,"",""],["CDISCPILOT01","701","01-701-1028",71,"65-80",2,"WHITE",1,"M","Y","2013-07-19","2014-01-14","Xanomeline High Dose",81,"Xanomeline High Dose",81,"PULSE","Pulse Rate (BEATS/MIN)",3,"2013-07-19",1,816,"AFTER STANDING FOR 1 MINUTE","Baseline",0,62,62,0,0,3,"BASELINE",51,"Y","Y"],["CDISCPILOT01","701","01-701-1028",71,"65-80",2,"WHITE",1,"M","Y","2013-07-19","2014-01-14","Xanomeline High Dose",81,"Xanomeline High Dose",81,"PULSE","Pulse Rate (BEATS/MIN)",3,"2013-07-31",13,816,"AFTER STANDING FOR 1 MINUTE","",null,66,62,4,6.45161290323,3.5,"AMBUL ECG PLACEMENT",54,"",""],["CDISCPILOT01","701","01-701-1028",71,"65-80",2,"WHITE",1,"M","Y","2013-07-19","2014-01-14","Xanomeline High Dose",81,"Xanomeline High Dose",81,"PULSE","Pulse Rate (BEATS/MIN)",3,"2013-08-01",14,816,"AFTER STANDING FOR 1 MINUTE","Week 2",2,77,62,15,24.1935483871,4,"WEEK 2",57,"Y",""],["CDISCPILOT01","701","01-701-1028",71,"65-80",2,"WHITE",1,"M","Y","2013-07-19","2014-01-14","Xanomeline High Dose",81,"Xanomeline High Dose",81,"PULSE","Pulse Rate (BEATS/MIN)",3,"2013-08-14",27,816,"AFTER STANDING FOR 1 MINUTE","Week 4",4,81,62,19,30.6451612903,5,"WEEK 4",60,"Y",""],["CDISCPILOT01","701","01-701-1028",71,"65-80",2,"WHITE",1,"M","Y","2013-07-19","2014-01-14","Xanomeline High Dose",81,"Xanomeline High Dose",81,"PULSE","Pulse Rate (BEATS/MIN)",3,"2013-08-16",29,816,"AFTER STANDING FOR 1 MINUTE","",null,68,62,6,9.67741935484,6,"AMBUL ECG REMOVAL",63,"",""],["CDISCPILOT01","701","01-701-1028",71,"65-80",2,"WHITE",1,"M","Y","2013-07-19","2014-01-14","Xanomeline High Dose",81,"Xanomeline High Dose",81,"PULSE","Pulse Rate (BEATS/MIN)",3,"2013-08-29",42,816,"AFTER STANDING FOR 1 MINUTE","Week 6",6,60,62,-2,-3.22580645161,7,"WEEK 6",66,"Y",""],["CDISCPILOT01","701","01-701-1028",71,"65-80",2,"WHITE",1,"M","Y","2013-07-19","2014-01-14","Xanomeline High Dose",81,"Xanomeline High Dose",81,"PULSE","Pulse Rate (BEATS/MIN)",3,"2013-09-10",54,816,"AFTER STANDING FOR 1 MINUTE","Week 8",8,76,62,14,22.5806451613,8,"WEEK 8",69,"Y",""],["CDISCPILOT01","701","01-701-1028",71,"65-80",2,"WHITE",1,"M","Y","2013-07-19","2014-01-14","Xanomeline High Dose",81,"Xanomeline High Dose",81,"PULSE","Pulse Rate (BEATS/MIN)",3,"2013-10-09",83,816,"AFTER STANDING FOR 1 MINUTE","Week 12",12,64,62,2,3.22580645161,9,"WEEK 12",72,"Y",""],["CDISCPILOT01","701","01-701-1028",71,"65-80",2,"WHITE",1,"M","Y","2013-07-19","2014-01-14","Xanomeline High Dose",81,"Xanomeline High Dose",81,"PULSE","Pulse Rate (BEATS/MIN)",3,"2013-11-06",111,816,"AFTER STANDING FOR 1 MINUTE","Week 16",16,70,62,8,12.9032258065,10,"WEEK 16",75,"Y",""],["CDISCPILOT01","701","01-701-1028",71,"65-80",2,"WHITE",1,"M","Y","2013-07-19","2014-01-14","Xanomeline High Dose",81,"Xanomeline High Dose",81,"PULSE","Pulse Rate (BEATS/MIN)",3,"2013-12-04",139,816,"AFTER STANDING FOR 1 MINUTE","Week 20",20,67,62,5,8.06451612903,11,"WEEK 20",78,"Y",""],["CDISCPILOT01","701","01-701-1028",71,"65-80",2,"WHITE",1,"M","Y","2013-07-19","2014-01-14","Xanomeline High Dose",81,"Xanomeline High Dose",81,"PULSE","Pulse Rate (BEATS/MIN)",3,"2014-01-06",172,816,"AFTER STANDING FOR 1 MINUTE","Week 24",24,72,62,10,16.1290322581,12,"WEEK 24",81,"Y",""],["CDISCPILOT01","701","01-701-1028",71,"65-80",2,"WHITE",1,"M","Y","2013-07-19","2014-01-14","Xanomeline High Dose",81,"Xanomeline High Dose",81,"PULSE","Pulse Rate (BEATS/MIN)",3,"2014-01-14",180,816,"AFTER STANDING FOR 1 MINUTE","Week 26",26,58,62,-4,-6.45161290323,13,"WEEK 26",84,"Y",""],["CDISCPILOT01","701","01-701-1028",71,"65-80",2,"WHITE",1,"M","Y","2013-07-19","2014-01-14","Xanomeline High Dose",81,"Xanomeline High Dose",81,"PULSE","Pulse Rate (BEATS/MIN)",3,"2014-01-14",180,816,"AFTER STANDING FOR 1 MINUTE","End of Treatment",99,58,62,-4,-6.45161290323,13,"WEEK 26",84,"Y",""],["CDISCPILOT01","701","01-701-1028",71,"65-80",2,"WHITE",1,"M","Y","2013-07-19","2014-01-14","Xanomeline High Dose",81,"Xanomeline High Dose",81,"PULSE","Pulse Rate (BEATS/MIN)",3,"2013-07-11",-8,817,"AFTER STANDING FOR 3 MINUTES","",null,59,66,-7,-10.6060606061,1,"SCREENING 1",46,"",""],["CDISCPILOT01","701","01-701-1028",71,"65-80",2,"WHITE",1,"M","Y","2013-07-19","2014-01-14","Xanomeline High Dose",81,"Xanomeline High Dose",81,"PULSE","Pulse Rate (BEATS/MIN)",3,"2013-07-17",-2,817,"AFTER STANDING FOR 3 MINUTES","",null,74,66,8,12.1212121212,2,"SCREENING 2",49,"",""],["CDISCPILOT01","701","01-701-1028",71,"65-80",2,"WHITE",1,"M","Y","2013-07-19","2014-01-14","Xanomeline High Dose",81,"Xanomeline High Dose",81,"PULSE","Pulse Rate (BEATS/MIN)",3,"2013-07-19",1,817,"AFTER STANDING FOR 3 MINUTES","Baseline",0,66,66,0,0,3,"BASELINE",52,"Y","Y"],["CDISCPILOT01","701","01-701-1028",71,"65-80",2,"WHITE",1,"M","Y","2013-07-19","2014-01-14","Xanomeline High Dose",81,"Xanomeline High Dose",81,"PULSE","Pulse Rate (BEATS/MIN)",3,"2013-07-31",13,817,"AFTER STANDING FOR 3 MINUTES","",null,65,66,-1,-1.51515151515,3.5,"AMBUL ECG PLACEMENT",55,"",""],["CDISCPILOT01","701","01-701-1028",71,"65-80",2,"WHITE",1,"M","Y","2013-07-19","2014-01-14","Xanomeline High Dose",81,"Xanomeline High Dose",81,"PULSE","Pulse Rate (BEATS/MIN)",3,"2013-08-01",14,817,"AFTER STANDING FOR 3 MINUTES","Week 2",2,72,66,6,9.09090909091,4,"WEEK 2",58,"Y",""],["CDISCPILOT01","701","01-701-1028",71,"65-80",2,"WHITE",1,"M","Y","2013-07-19","2014-01-14","Xanomeline High Dose",81,"Xanomeline High Dose",81,"PULSE","Pulse Rate (BEATS/MIN)",3,"2013-08-14",27,817,"AFTER STANDING FOR 3 MINUTES","Week 4",4,76,66,10,15.1515151515,5,"WEEK 4",61,"Y",""],["CDISCPILOT01","701","01-701-1028",71,"65-80",2,"WHITE",1,"M","Y","2013-07-19","2014-01-14","Xanomeline High Dose",81,"Xanomeline High Dose",81,"PULSE","Pulse Rate (BEATS/MIN)",3,"2013-08-16",29,817,"AFTER STANDING FOR 3 MINUTES","",null,70,66,4,6.06060606061,6,"AMBUL ECG REMOVAL",64,"",""],["CDISCPILOT01","701","01-701-1028",71,"65-80",2,"WHITE",1,"M","Y","2013-07-19","2014-01-14","Xanomeline High Dose",81,"Xanomeline High Dose",81,"PULSE","Pulse Rate (BEATS/MIN)",3,"2013-08-29",42,817,"AFTER STANDING FOR 3 MINUTES","Week 6",6,62,66,-4,-6.06060606061,7,"WEEK 6",67,"Y",""],["CDISCPILOT01","701","01-701-1028",71,"65-80",2,"WHITE",1,"M","Y","2013-07-19","2014-01-14","Xanomeline High Dose",81,"Xanomeline High Dose",81,"PULSE","Pulse Rate (BEATS/MIN)",3,"2013-09-10",54,817,"AFTER STANDING FOR 3 MINUTES","Week 8",8,81,66,15,22.7272727273,8,"WEEK 8",70,"Y",""],["CDISCPILOT01","701","01-701-1028",71,"65-80",2,"WHITE",1,"M","Y","2013-07-19","2014-01-14","Xanomeline High Dose",81,"Xanomeline High Dose",81,"PULSE","Pulse Rate (BEATS/MIN)",3,"2013-10-09",83,817,"AFTER STANDING FOR 3 MINUTES","Week 12",12,70,66,4,6.06060606061,9,"WEEK 12",73,"Y",""],["CDISCPILOT01","701","01-701-1028",71,"65-80",2,"WHITE",1,"M","Y","2013-07-19","2014-01-14","Xanomeline High Dose",81,"Xanomeline High Dose",81,"PULSE","Pulse Rate (BEATS/MIN)",3,"2013-11-06",111,817,"AFTER STANDING FOR 3 MINUTES","Week 16",16,69,66,3,4.54545454545,10,"WEEK 16",76,"Y",""],["CDISCPILOT01","701","01-701-1028",71,"65-80",2,"WHITE",1,"M","Y","2013-07-19","2014-01-14","Xanomeline High Dose",81,"Xanomeline High Dose",81,"PULSE","Pulse Rate (BEATS/MIN)",3,"2013-12-04",139,817,"AFTER STANDING FOR 3 MINUTES","Week 20",20,69,66,3,4.54545454545,11,"WEEK 20",79,"Y",""],["CDISCPILOT01","701","01-701-1028",71,"65-80",2,"WHITE",1,"M","Y","2013-07-19","2014-01-14","Xanomeline High Dose",81,"Xanomeline High Dose",81,"PULSE","Pulse Rate (BEATS/MIN)",3,"2014-01-06",172,817,"AFTER STANDING FOR 3 MINUTES","Week 24",24,73,66,7,10.6060606061,12,"WEEK 24",82,"Y",""],["CDISCPILOT01","701","01-701-1028",71,"65-80",2,"WHITE",1,"M","Y","2013-07-19","2014-01-14","Xanomeline High Dose",81,"Xanomeline High Dose",81,"PULSE","Pulse Rate (BEATS/MIN)",3,"2014-01-14",180,817,"AFTER STANDING FOR 3 MINUTES","Week 26",26,59,66,-7,-10.6060606061,13,"WEEK 26",85,"Y",""],["CDISCPILOT01","701","01-701-1028",71,"65-80",2,"WHITE",1,"M","Y","2013-07-19","2014-01-14","Xanomeline High Dose",81,"Xanomeline High Dose",81,"PULSE","Pulse Rate (BEATS/MIN)",3,"2014-01-14",180,817,"AFTER STANDING FOR 3 MINUTES","End of Treatment",99,59,66,-7,-10.6060606061,13,"WEEK 26",85,"Y",""],["CDISCPILOT01","701","01-701-1028",71,"65-80",2,"WHITE",1,"M","Y","2013-07-19","2014-01-14","Xanomeline High Dose",81,"Xanomeline High Dose",81,"SYSBP","Systolic Blood Pressure (mmHg)",1,"2013-07-11",-8,815,"AFTER LYING DOWN FOR 5 MINUTES","",null,143,138,5,3.6231884058,1,"SCREENING 1",86,"",""],["CDISCPILOT01","701","01-701-1028",71,"65-80",2,"WHITE",1,"M","Y","2013-07-19","2014-01-14","Xanomeline High Dose",81,"Xanomeline High Dose",81,"SYSBP","Systolic Blood Pressure (mmHg)",1,"2013-07-17",-2,815,"AFTER LYING DOWN FOR 5 MINUTES","",null,122,138,-16,-11.5942028986,2,"SCREENING 2",89,"",""],["CDISCPILOT01","701","01-701-1028",71,"65-80",2,"WHITE",1,"M","Y","2013-07-19","2014-01-14","Xanomeline High Dose",81,"Xanomeline High Dose",81,"SYSBP","Systolic Blood Pressure (mmHg)",1,"2013-07-19",1,815,"AFTER LYING DOWN FOR 5 MINUTES","Baseline",0,138,138,0,0,3,"BASELINE",92,"Y","Y"],["CDISCPILOT01","701","01-701-1028",71,"65-80",2,"WHITE",1,"M","Y","2013-07-19","2014-01-14","Xanomeline High Dose",81,"Xanomeline High Dose",81,"SYSBP","Systolic Blood Pressure (mmHg)",1,"2013-07-31",13,815,"AFTER LYING DOWN FOR 5 MINUTES","",null,138,138,0,0,3.5,"AMBUL ECG PLACEMENT",95,"",""],["CDISCPILOT01","701","01-701-1028",71,"65-80",2,"WHITE",1,"M","Y","2013-07-19","2014-01-14","Xanomeline High Dose",81,"Xanomeline High Dose",81,"SYSBP","Systolic Blood Pressure (mmHg)",1,"2013-08-01",14,815,"AFTER LYING DOWN FOR 5 MINUTES","Week 2",2,134,138,-4,-2.89855072464,4,"WEEK 2",98,"Y",""],["CDISCPILOT01","701","01-701-1028",71,"65-80",2,"WHITE",1,"M","Y","2013-07-19","2014-01-14","Xanomeline High Dose",81,"Xanomeline High Dose",81,"SYSBP","Systolic Blood Pressure (mmHg)",1,"2013-08-14",27,815,"AFTER LYING DOWN FOR 5 MINUTES","Week 4",4,130,138,-8,-5.79710144928,5,"WEEK 4",101,"Y",""],["CDISCPILOT01","701","01-701-1028",71,"65-80",2,"WHITE",1,"M","Y","2013-07-19","2014-01-14","Xanomeline High Dose",81,"Xanomeline High Dose",81,"SYSBP","Systolic Blood Pressure (mmHg)",1,"2013-08-16",29,815,"AFTER LYING DOWN FOR 5 MINUTES","",null,138,138,0,0,6,"AMBUL ECG REMOVAL",104,"",""],["CDISCPILOT01","701","01-701-1028",71,"65-80",2,"WHITE",1,"M","Y","2013-07-19","2014-01-14","Xanomeline High Dose",81,"Xanomeline High Dose",81,"SYSBP","Systolic Blood Pressure (mmHg)",1,"2013-08-29",42,815,"AFTER LYING DOWN FOR 5 MINUTES","Week 6",6,131,138,-7,-5.07246376812,7,"WEEK 6",107,"Y",""],["CDISCPILOT01","701","01-701-1028",71,"65-80",2,"WHITE",1,"M","Y","2013-07-19","2014-01-14","Xanomeline High Dose",81,"Xanomeline High Dose",81,"SYSBP","Systolic Blood Pressure (mmHg)",1,"2013-09-10",54,815,"AFTER LYING DOWN FOR 5 MINUTES","Week 8",8,137,138,-1,-0.724637681159,8,"WEEK 8",110,"Y",""],["CDISCPILOT01","701","01-701-1028",71,"65-80",2,"WHITE",1,"M","Y","2013-07-19","2014-01-14","Xanomeline High Dose",81,"Xanomeline High Dose",81,"SYSBP","Systolic Blood Pressure (mmHg)",1,"2013-10-09",83,815,"AFTER LYING DOWN FOR 5 MINUTES","Week 12",12,128,138,-10,-7.24637681159,9,"WEEK 12",113,"Y",""],["CDISCPILOT01","701","01-701-1028",71,"65-80",2,"WHITE",1,"M","Y","2013-07-19","2014-01-14","Xanomeline High Dose",81,"Xanomeline High Dose",81,"SYSBP","Systolic Blood Pressure (mmHg)",1,"2013-11-06",111,815,"AFTER LYING DOWN FOR 5 MINUTES","Week 16",16,122,138,-16,-11.5942028986,10,"WEEK 16",116,"Y",""],["CDISCPILOT01","701","01-701-1028",71,"65-80",2,"WHITE",1,"M","Y","2013-07-19","2014-01-14","Xanomeline High Dose",81,"Xanomeline High Dose",81,"SYSBP","Systolic Blood Pressure (mmHg)",1,"2013-12-04",139,815,"AFTER LYING DOWN FOR 5 MINUTES","Week 20",20,129,138,-9,-6.52173913043,11,"WEEK 20",119,"Y",""],["CDISCPILOT01","701","01-701-1028",71,"65-80",2,"WHITE",1,"M","Y","2013-07-19","2014-01-14","Xanomeline High Dose",81,"Xanomeline High Dose",81,"SYSBP","Systolic Blood Pressure (mmHg)",1,"2014-01-06",172,815,"AFTER LYING DOWN FOR 5 MINUTES","Week 24",24,130,138,-8,-5.79710144928,12,"WEEK 24",122,"Y",""],["CDISCPILOT01","701","01-701-1028",71,"65-80",2,"WHITE",1,"M","Y","2013-07-19","2014-01-14","Xanomeline High Dose",81,"Xanomeline High Dose",81,"SYSBP","Systolic Blood Pressure (mmHg)",1,"2014-01-14",180,815,"AFTER LYING DOWN FOR 5 MINUTES","Week 26",26,131,138,-7,-5.07246376812,13,"WEEK 26",125,"Y",""],["CDISCPILOT01","701","01-701-1028",71,"65-80",2,"WHITE",1,"M","Y","2013-07-19","2014-01-14","Xanomeline High Dose",81,"Xanomeline High Dose",81,"SYSBP","Systolic Blood Pressure (mmHg)",1,"2014-01-14",180,815,"AFTER LYING DOWN FOR 5 MINUTES","End of Treatment",99,131,138,-7,-5.07246376812,13,"WEEK 26",125,"Y",""],["CDISCPILOT01","701","01-701-1028",71,"65-80",2,"WHITE",1,"M","Y","2013-07-19","2014-01-14","Xanomeline High Dose",81,"Xanomeline High Dose",81,"SYSBP","Systolic Blood Pressure (mmHg)",1,"2013-07-11",-8,816,"AFTER STANDING FOR 1 MINUTE","",null,140,145,-5,-3.44827586207,1,"SCREENING 1",87,"",""],["CDISCPILOT01","701","01-701-1028",71,"65-80",2,"WHITE",1,"M","Y","2013-07-19","2014-01-14","Xanomeline High Dose",81,"Xanomeline High Dose",81,"SYSBP","Systolic Blood Pressure (mmHg)",1,"2013-07-17",-2,816,"AFTER STANDING FOR 1 MINUTE","",null,142,145,-3,-2.06896551724,2,"SCREENING 2",90,"",""],["CDISCPILOT01","701","01-701-1028",71,"65-80",2,"WHITE",1,"M","Y","2013-07-19","2014-01-14","Xanomeline High Dose",81,"Xanomeline High Dose",81,"SYSBP","Systolic Blood Pressure (mmHg)",1,"2013-07-19",1,816,"AFTER STANDING FOR 1 MINUTE","Baseline",0,145,145,0,0,3,"BASELINE",93,"Y","Y"],["CDISCPILOT01","701","01-701-1028",71,"65-80",2,"WHITE",1,"M","Y","2013-07-19","2014-01-14","Xanomeline High Dose",81,"Xanomeline High Dose",81,"SYSBP","Systolic Blood Pressure (mmHg)",1,"2013-07-31",13,816,"AFTER STANDING FOR 1 MINUTE","",null,137,145,-8,-5.51724137931,3.5,"AMBUL ECG PLACEMENT",96,"",""],["CDISCPILOT01","701","01-701-1028",71,"65-80",2,"WHITE",1,"M","Y","2013-07-19","2014-01-14","Xanomeline High Dose",81,"Xanomeline High Dose",81,"SYSBP","Systolic Blood Pressure (mmHg)",1,"2013-08-01",14,816,"AFTER STANDING FOR 1 MINUTE","Week 2",2,138,145,-7,-4.8275862069,4,"WEEK 2",99,"Y",""],["CDISCPILOT01","701","01-701-1028",71,"65-80",2,"WHITE",1,"M","Y","2013-07-19","2014-01-14","Xanomeline High Dose",81,"Xanomeline High Dose",81,"SYSBP","Systolic Blood Pressure (mmHg)",1,"2013-08-14",27,816,"AFTER STANDING FOR 1 MINUTE","Week 4",4,130,145,-15,-10.3448275862,5,"WEEK 4",102,"Y",""],["CDISCPILOT01","701","01-701-1028",71,"65-80",2,"WHITE",1,"M","Y","2013-07-19","2014-01-14","Xanomeline High Dose",81,"Xanomeline High Dose",81,"SYSBP","Systolic Blood Pressure (mmHg)",1,"2013-08-16",29,816,"AFTER STANDING FOR 1 MINUTE","",null,138,145,-7,-4.8275862069,6,"AMBUL ECG REMOVAL",105,"",""],["CDISCPILOT01","701","01-701-1028",71,"65-80",2,"WHITE",1,"M","Y","2013-07-19","2014-01-14","Xanomeline High Dose",81,"Xanomeline High Dose",81,"SYSBP","Systolic Blood Pressure (mmHg)",1,"2013-08-29",42,816,"AFTER STANDING FOR 1 MINUTE","Week 6",6,131,145,-14,-9.65517241379,7,"WEEK 6",108,"Y",""],["CDISCPILOT01","701","01-701-1028",71,"65-80",2,"WHITE",1,"M","Y","2013-07-19","2014-01-14","Xanomeline High Dose",81,"Xanomeline High Dose",81,"SYSBP","Systolic Blood Pressure (mmHg)",1,"2013-09-10",54,816,"AFTER STANDING FOR 1 MINUTE","Week 8",8,146,145,1,0.689655172414,8,"WEEK 8",111,"Y",""],["CDISCPILOT01","701","01-701-1028",71,"65-80",2,"WHITE",1,"M","Y","2013-07-19","2014-01-14","Xanomeline High Dose",81,"Xanomeline High Dose",81,"SYSBP","Systolic Blood Pressure (mmHg)",1,"2013-10-09",83,816,"AFTER STANDING FOR 1 MINUTE","Week 12",12,137,145,-8,-5.51724137931,9,"WEEK 12",114,"Y",""],["CDISCPILOT01","701","01-701-1028",71,"65-80",2,"WHITE",1,"M","Y","2013-07-19","2014-01-14","Xanomeline High Dose",81,"Xanomeline High Dose",81,"SYSBP","Systolic Blood Pressure (mmHg)",1,"2013-11-06",111,816,"AFTER STANDING FOR 1 MINUTE","Week 16",16,130,145,-15,-10.3448275862,10,"WEEK 16",117,"Y",""],["CDISCPILOT01","701","01-701-1028",71,"65-80",2,"WHITE",1,"M","Y","2013-07-19","2014-01-14","Xanomeline High Dose",81,"Xanomeline High Dose",81,"SYSBP","Systolic Blood Pressure (mmHg)",1,"2013-12-04",139,816,"AFTER STANDING FOR 1 MINUTE","Week 20",20,123,145,-22,-15.1724137931,11,"WEEK 20",120,"Y",""],["CDISCPILOT01","701","01-701-1028",71,"65-80",2,"WHITE",1,"M","Y","2013-07-19","2014-01-14","Xanomeline High Dose",81,"Xanomeline High Dose",81,"SYSBP","Systolic Blood Pressure (mmHg)",1,"2014-01-06",172,816,"AFTER STANDING FOR 1 MINUTE","Week 24",24,133,145,-12,-8.27586206897,12,"WEEK 24",123,"Y",""],["CDISCPILOT01","701","01-701-1028",71,"65-80",2,"WHITE",1,"M","Y","2013-07-19","2014-01-14","Xanomeline High Dose",81,"Xanomeline High Dose",81,"SYSBP","Systolic Blood Pressure (mmHg)",1,"2014-01-14",180,816,"AFTER STANDING FOR 1 MINUTE","Week 26",26,118,145,-27,-18.6206896552,13,"WEEK 26",126,"Y",""],["CDISCPILOT01","701","01-701-1028",71,"65-80",2,"WHITE",1,"M","Y","2013-07-19","2014-01-14","Xanomeline High Dose",81,"Xanomeline High Dose",81,"SYSBP","Systolic Blood Pressure (mmHg)",1,"2014-01-14",180,816,"AFTER STANDING FOR 1 MINUTE","End of Treatment",99,118,145,-27,-18.6206896552,13,"WEEK 26",126,"Y",""],["CDISCPILOT01","701","01-701-1028",71,"65-80",2,"WHITE",1,"M","Y","2013-07-19","2014-01-14","Xanomeline High Dose",81,"Xanomeline High Dose",81,"SYSBP","Systolic Blood Pressure (mmHg)",1,"2013-07-11",-8,817,"AFTER STANDING FOR 3 MINUTES","",null,132,139,-7,-5.03597122302,1,"SCREENING 1",88,"",""],["CDISCPILOT01","701","01-701-1028",71,"65-80",2,"WHITE",1,"M","Y","2013-07-19","2014-01-14","Xanomeline High Dose",81,"Xanomeline High Dose",81,"SYSBP","Systolic Blood Pressure (mmHg)",1,"2013-07-17",-2,817,"AFTER STANDING FOR 3 MINUTES","",null,132,139,-7,-5.03597122302,2,"SCREENING 2",91,"",""],["CDISCPILOT01","701","01-701-1028",71,"65-80",2,"WHITE",1,"M","Y","2013-07-19","2014-01-14","Xanomeline High Dose",81,"Xanomeline High Dose",81,"SYSBP","Systolic Blood Pressure (mmHg)",1,"2013-07-19",1,817,"AFTER STANDING FOR 3 MINUTES","Baseline",0,139,139,0,0,3,"BASELINE",94,"Y","Y"],["CDISCPILOT01","701","01-701-1028",71,"65-80",2,"WHITE",1,"M","Y","2013-07-19","2014-01-14","Xanomeline High Dose",81,"Xanomeline High Dose",81,"SYSBP","Systolic Blood Pressure (mmHg)",1,"2013-07-31",13,817,"AFTER STANDING FOR 3 MINUTES","",null,145,139,6,4.31654676259,3.5,"AMBUL ECG PLACEMENT",97,"",""],["CDISCPILOT01","701","01-701-1028",71,"65-80",2,"WHITE",1,"M","Y","2013-07-19","2014-01-14","Xanomeline High Dose",81,"Xanomeline High Dose",81,"SYSBP","Systolic Blood Pressure (mmHg)",1,"2013-08-01",14,817,"AFTER STANDING FOR 3 MINUTES","Week 2",2,131,139,-8,-5.75539568345,4,"WEEK 2",100,"Y",""],["CDISCPILOT01","701","01-701-1028",71,"65-80",2,"WHITE",1,"M","Y","2013-07-19","2014-01-14","Xanomeline High Dose",81,"Xanomeline High Dose",81,"SYSBP","Systolic Blood Pressure (mmHg)",1,"2013-08-14",27,817,"AFTER STANDING FOR 3 MINUTES","Week 4",4,138,139,-1,-0.719424460432,5,"WEEK 4",103,"Y",""],["CDISCPILOT01","701","01-701-1028",71,"65-80",2,"WHITE",1,"M","Y","2013-07-19","2014-01-14","Xanomeline High Dose",81,"Xanomeline High Dose",81,"SYSBP","Systolic Blood Pressure (mmHg)",1,"2013-08-16",29,817,"AFTER STANDING FOR 3 MINUTES","",null,146,139,7,5.03597122302,6,"AMBUL ECG REMOVAL",106,"",""],["CDISCPILOT01","701","01-701-1028",71,"65-80",2,"WHITE",1,"M","Y","2013-07-19","2014-01-14","Xanomeline High Dose",81,"Xanomeline High Dose",81,"SYSBP","Systolic Blood Pressure (mmHg)",1,"2013-08-29",42,817,"AFTER STANDING FOR 3 MINUTES","Week 6",6,132,139,-7,-5.03597122302,7,"WEEK 6",109,"Y",""],["CDISCPILOT01","701","01-701-1028",71,"65-80",2,"WHITE",1,"M","Y","2013-07-19","2014-01-14","Xanomeline High Dose",81,"Xanomeline High Dose",81,"SYSBP","Systolic Blood Pressure (mmHg)",1,"2013-09-10",54,817,"AFTER STANDING FOR 3 MINUTES","Week 8",8,130,139,-9,-6.47482014388,8,"WEEK 8",112,"Y",""],["CDISCPILOT01","701","01-701-1028",71,"65-80",2,"WHITE",1,"M","Y","2013-07-19","2014-01-14","Xanomeline High Dose",81,"Xanomeline High Dose",81,"SYSBP","Systolic Blood Pressure (mmHg)",1,"2013-10-09",83,817,"AFTER STANDING FOR 3 MINUTES","Week 12",12,138,139,-1,-0.719424460432,9,"WEEK 12",115,"Y",""],["CDISCPILOT01","701","01-701-1028",71,"65-80",2,"WHITE",1,"M","Y","2013-07-19","2014-01-14","Xanomeline High Dose",81,"Xanomeline High Dose",81,"SYSBP","Systolic Blood Pressure (mmHg)",1,"2013-11-06",111,817,"AFTER STANDING FOR 3 MINUTES","Week 16",16,132,139,-7,-5.03597122302,10,"WEEK 16",118,"Y",""],["CDISCPILOT01","701","01-701-1028",71,"65-80",2,"WHITE",1,"M","Y","2013-07-19","2014-01-14","Xanomeline High Dose",81,"Xanomeline High Dose",81,"SYSBP","Systolic Blood Pressure (mmHg)",1,"2013-12-04",139,817,"AFTER STANDING FOR 3 MINUTES","Week 20",20,131,139,-8,-5.75539568345,11,"WEEK 20",121,"Y",""],["CDISCPILOT01","701","01-701-1028",71,"65-80",2,"WHITE",1,"M","Y","2013-07-19","2014-01-14","Xanomeline High Dose",81,"Xanomeline High Dose",81,"SYSBP","Systolic Blood Pressure (mmHg)",1,"2014-01-06",172,817,"AFTER STANDING FOR 3 MINUTES","Week 24",24,131,139,-8,-5.75539568345,12,"WEEK 24",124,"Y",""],["CDISCPILOT01","701","01-701-1028",71,"65-80",2,"WHITE",1,"M","Y","2013-07-19","2014-01-14","Xanomeline High Dose",81,"Xanomeline High Dose",81,"SYSBP","Systolic Blood Pressure (mmHg)",1,"2014-01-14",180,817,"AFTER STANDING FOR 3 MINUTES","Week 26",26,131,139,-8,-5.75539568345,13,"WEEK 26",127,"Y",""],["CDISCPILOT01","701","01-701-1028",71,"65-80",2,"WHITE",1,"M","Y","2013-07-19","2014-01-14","Xanomeline High Dose",81,"Xanomeline High Dose",81,"SYSBP","Systolic Blood Pressure (mmHg)",1,"2014-01-14",180,817,"AFTER STANDING FOR 3 MINUTES","End of Treatment",99,131,139,-8,-5.75539568345,13,"WEEK 26",127,"Y",""],["CDISCPILOT01","701","01-701-1028",71,"65-80",2,"WHITE",1,"M","Y","2013-07-19","2014-01-14","Xanomeline High Dose",81,"Xanomeline High Dose",81,"TEMP","Temperature (C)",6,"2013-07-11",-8,null,"","",null,36.94,37,-0.06,-0.162162162162,1,"SCREENING 1",128,"",""],["CDISCPILOT01","701","01-701-1028",71,"65-80",2,"WHITE",1,"M","Y","2013-07-19","2014-01-14","Xanomeline High Dose",81,"Xanomeline High Dose",81,"TEMP","Temperature (C)",6,"2013-07-17",-2,null,"","",null,35.94,37,-1.06,-2.86486486486,2,"SCREENING 2",129,"",""],["CDISCPILOT01","701","01-701-1028",71,"65-80",2,"WHITE",1,"M","Y","2013-07-19","2014-01-14","Xanomeline High Dose",81,"Xanomeline High Dose",81,"TEMP","Temperature (C)",6,"2013-07-19",1,null,"","Baseline",0,37,37,0,0,3,"BASELINE",130,"Y","Y"],["CDISCPILOT01","701","01-701-1028",71,"65-80",2,"WHITE",1,"M","Y","2013-07-19","2014-01-14","Xanomeline High Dose",81,"Xanomeline High Dose",81,"TEMP","Temperature (C)",6,"2013-07-31",13,null,"","",null,36.78,37,-0.22,-0.594594594595,3.5,"AMBUL ECG PLACEMENT",131,"",""],["CDISCPILOT01","701","01-701-1028",71,"65-80",2,"WHITE",1,"M","Y","2013-07-19","2014-01-14","Xanomeline High Dose",81,"Xanomeline High Dose",81,"TEMP","Temperature (C)",6,"2013-08-01",14,null,"","Week 2",2,37.22,37,0.22,0.594594594595,4,"WEEK 2",132,"Y",""],["CDISCPILOT01","701","01-701-1028",71,"65-80",2,"WHITE",1,"M","Y","2013-07-19","2014-01-14","Xanomeline High Dose",81,"Xanomeline High Dose",81,"TEMP","Temperature (C)",6,"2013-08-14",27,null,"","Week 4",4,36.94,37,-0.06,-0.162162162162,5,"WEEK 4",133,"Y",""],["CDISCPILOT01","701","01-701-1028",71,"65-80",2,"WHITE",1,"M","Y","2013-07-19","2014-01-14","Xanomeline High Dose",81,"Xanomeline High Dose",81,"TEMP","Temperature (C)",6,"2013-08-16",29,null,"","",null,36.78,37,-0.22,-0.594594594595,6,"AMBUL ECG REMOVAL",134,"",""],["CDISCPILOT01","701","01-701-1028",71,"65-80",2,"WHITE",1,"M","Y","2013-07-19","2014-01-14","Xanomeline High Dose",81,"Xanomeline High Dose",81,"TEMP","Temperature (C)",6,"2013-08-29",42,null,"","Week 6",6,36.5,37,-0.5,-1.35135135135,7,"WEEK 6",135,"Y",""],["CDISCPILOT01","701","01-701-1028",71,"65-80",2,"WHITE",1,"M","Y","2013-07-19","2014-01-14","Xanomeline High Dose",81,"Xanomeline High Dose",81,"TEMP","Temperature (C)",6,"2013-09-10",54,null,"","Week 8",8,36.72,37,-0.28,-0.756756756757,8,"WEEK 8",136,"Y",""],["CDISCPILOT01","701","01-701-1028",71,"65-80",2,"WHITE",1,"M","Y","2013-07-19","2014-01-14","Xanomeline High Dose",81,"Xanomeline High Dose",81,"TEMP","Temperature (C)",6,"2013-10-09",83,null,"","Week 12",12,36.83,37,-0.17,-0.459459459459,9,"WEEK 12",137,"Y",""],["CDISCPILOT01","701","01-701-1028",71,"65-80",2,"WHITE",1,"M","Y","2013-07-19","2014-01-14","Xanomeline High Dose",81,"Xanomeline High Dose",81,"TEMP","Temperature (C)",6,"2013-11-06",111,null,"","Week 16",16,36.56,37,-0.44,-1.18918918919,10,"WEEK 16",138,"Y",""],["CDISCPILOT01","701","01-701-1028",71,"65-80",2,"WHITE",1,"M","Y","2013-07-19","2014-01-14","Xanomeline High Dose",81,"Xanomeline High Dose",81,"TEMP","Temperature (C)",6,"2013-12-04",139,null,"","Week 20",20,36.44,37,-0.56,-1.51351351351,11,"WEEK 20",139,"Y",""],["CDISCPILOT01","701","01-701-1028",71,"65-80",2,"WHITE",1,"M","Y","2013-07-19","2014-01-14","Xanomeline High Dose",81,"Xanomeline High Dose",81,"TEMP","Temperature (C)",6,"2014-01-06",172,null,"","Week 24",24,37.11,37,0.11,0.297297297297,12,"WEEK 24",140,"Y",""],["CDISCPILOT01","701","01-701-1028",71,"65-80",2,"WHITE",1,"M","Y","2013-07-19","2014-01-14","Xanomeline High Dose",81,"Xanomeline High Dose",81,"TEMP","Temperature (C)",6,"2014-01-14",180,null,"","Week 26",26,36.56,37,-0.44,-1.18918918919,13,"WEEK 26",141,"Y",""],["CDISCPILOT01","701","01-701-1028",71,"65-80",2,"WHITE",1,"M","Y","2013-07-19","2014-01-14","Xanomeline High Dose",81,"Xanomeline High Dose",81,"TEMP","Temperature (C)",6,"2014-01-14",180,null,"","End of Treatment",99,36.56,37,-0.44,-1.18918918919,13,"WEEK 26",141,"Y",""],["CDISCPILOT01","701","01-701-1028",71,"65-80",2,"WHITE",1,"M","Y","2013-07-19","2014-01-14","Xanomeline High Dose",81,"Xanomeline High Dose",81,"WEIGHT","Weight (kg)",4,"2013-07-11",-8,null,"","",null,98.88,99.34,-0.46,-0.463056170727,1,"SCREENING 1",142,"",""],["CDISCPILOT01","701","01-701-1028",71,"65-80",2,"WHITE",1,"M","Y","2013-07-19","2014-01-14","Xanomeline High Dose",81,"Xanomeline High Dose",81,"WEIGHT","Weight (kg)",4,"2013-07-19",1,null,"","Baseline",0,99.34,99.34,0,0,3,"BASELINE",143,"Y","Y"],["CDISCPILOT01","701","01-701-1028",71,"65-80",2,"WHITE",1,"M","Y","2013-07-19","2014-01-14","Xanomeline High Dose",81,"Xanomeline High Dose",81,"WEIGHT","Weight (kg)",4,"2013-08-01",14,null,"","Week 2",2,99.34,99.34,0,0,4,"WEEK 2",144,"Y",""],["CDISCPILOT01","701","01-701-1028",71,"65-80",2,"WHITE",1,"M","Y","2013-07-19","2014-01-14","Xanomeline High Dose",81,"Xanomeline High Dose",81,"WEIGHT","Weight (kg)",4,"2013-08-14",27,null,"","Week 4",4,98.88,99.34,-0.46,-0.463056170727,5,"WEEK 4",145,"Y",""],["CDISCPILOT01","701","01-701-1028",71,"65-80",2,"WHITE",1,"M","Y","2013-07-19","2014-01-14","Xanomeline High Dose",81,"Xanomeline High Dose",81,"WEIGHT","Weight (kg)",4,"2013-08-29",42,null,"","Week 6",6,98.43,99.34,-0.91,-0.91604590296,7,"WEEK 6",146,"Y",""],["CDISCPILOT01","701","01-701-1028",71,"65-80",2,"WHITE",1,"M","Y","2013-07-19","2014-01-14","Xanomeline High Dose",81,"Xanomeline High Dose",81,"WEIGHT","Weight (kg)",4,"2013-09-10",54,null,"","Week 8",8,99.34,99.34,0,0,8,"WEEK 8",147,"Y",""],["CDISCPILOT01","701","01-701-1028",71,"65-80",2,"WHITE",1,"M","Y","2013-07-19","2014-01-14","Xanomeline High Dose",81,"Xanomeline High Dose",81,"WEIGHT","Weight (kg)",4,"2013-10-09",83,null,"","Week 12",12,98.88,99.34,-0.46,-0.463056170727,9,"WEEK 12",148,"Y",""],["CDISCPILOT01","701","01-701-1028",71,"65-80",2,"WHITE",1,"M","Y","2013-07-19","2014-01-14","Xanomeline High Dose",81,"Xanomeline High Dose",81,"WEIGHT","Weight (kg)",4,"2013-11-06",111,null,"","Week 16",16,99.79,99.34,0.45,0.452989732233,10,"WEEK 16",149,"Y",""],["CDISCPILOT01","701","01-701-1028",71,"65-80",2,"WHITE",1,"M","Y","2013-07-19","2014-01-14","Xanomeline High Dose",81,"Xanomeline High Dose",81,"WEIGHT","Weight (kg)",4,"2013-12-04",139,null,"","Week 20",20,99.79,99.34,0.45,0.452989732233,11,"WEEK 20",150,"Y",""],["CDISCPILOT01","701","01-701-1028",71,"65-80",2,"WHITE",1,"M","Y","2013-07-19","2014-01-14","Xanomeline High Dose",81,"Xanomeline High Dose",81,"WEIGHT","Weight (kg)",4,"2014-01-06",172,null,"","Week 24",24,99.34,99.34,0,0,12,"WEEK 24",151,"Y",""],["CDISCPILOT01","701","01-701-1028",71,"65-80",2,"WHITE",1,"M","Y","2013-07-19","2014-01-14","Xanomeline High Dose",81,"Xanomeline High Dose",81,"WEIGHT","Weight (kg)",4,"2014-01-14",180,null,"","Week 26",26,99.79,99.34,0.45,0.452989732233,13,"WEEK 26",152,"Y",""],["CDISCPILOT01","701","01-701-1028",71,"65-80",2,"WHITE",1,"M","Y","2013-07-19","2014-01-14","Xanomeline High Dose",81,"Xanomeline High Dose",81,"WEIGHT","Weight (kg)",4,"2014-01-14",180,null,"","End of Treatment",99,99.79,99.34,0.45,0.452989732233,13,"WEEK 26",152,"Y",""],["CDISCPILOT01","701","01-701-1033",74,"65-80",2,"WHITE",1,"M","Y","2014-03-18","2014-03-31","Xanomeline Low Dose",54,"Xanomeline Low Dose",54,"DIABP","Diastolic Blood Pressure (mmHg)",2,"2014-03-10",-8,815,"AFTER LYING DOWN FOR 5 MINUTES","",null,82,83,-1,-1.20481927711,1,"SCREENING 1",1,"",""],["CDISCPILOT01","701","01-701-1033",74,"65-80",2,"WHITE",1,"M","Y","2014-03-18","2014-03-31","Xanomeline Low Dose",54,"Xanomeline Low Dose",54,"DIABP","Diastolic Blood Pressure (mmHg)",2,"2014-03-16",-2,815,"AFTER LYING DOWN FOR 5 MINUTES","",null,69,83,-14,-16.8674698795,2,"SCREENING 2",4,"",""],["CDISCPILOT01","701","01-701-1033",74,"65-80",2,"WHITE",1,"M","Y","2014-03-18","2014-03-31","Xanomeline Low Dose",54,"Xanomeline Low Dose",54,"DIABP","Diastolic Blood Pressure (mmHg)",2,"2014-03-18",1,815,"AFTER LYING DOWN FOR 5 MINUTES","Baseline",0,83,83,0,0,3,"BASELINE",7,"Y","Y"],["CDISCPILOT01","701","01-701-1033",74,"65-80",2,"WHITE",1,"M","Y","2014-03-18","2014-03-31","Xanomeline Low Dose",54,"Xanomeline Low Dose",54,"DIABP","Diastolic Blood Pressure (mmHg)",2,"2014-03-31",14,815,"AFTER LYING DOWN FOR 5 MINUTES","",null,84,83,1,1.20481927711,3.5,"AMBUL ECG PLACEMENT",10,"",""],["CDISCPILOT01","701","01-701-1033",74,"65-80",2,"WHITE",1,"M","Y","2014-03-18","2014-03-31","Xanomeline Low Dose",54,"Xanomeline Low Dose",54,"DIABP","Diastolic Blood Pressure (mmHg)",2,"2014-04-01",15,815,"AFTER LYING DOWN FOR 5 MINUTES","Week 2",2,84,83,1,1.20481927711,4,"WEEK 2",13,"Y",""],["CDISCPILOT01","701","01-701-1033",74,"65-80",2,"WHITE",1,"M","Y","2014-03-18","2014-03-31","Xanomeline Low Dose",54,"Xanomeline Low Dose",54,"DIABP","Diastolic Blood Pressure (mmHg)",2,"2014-04-14",28,815,"AFTER LYING DOWN FOR 5 MINUTES","Week 4",4,76,83,-7,-8.43373493976,5,"WEEK 4",16,"Y",""],["CDISCPILOT01","701","01-701-1033",74,"65-80",2,"WHITE",1,"M","Y","2014-03-18","2014-03-31","Xanomeline Low Dose",54,"Xanomeline Low Dose",54,"DIABP","Diastolic Blood Pressure (mmHg)",2,"2014-04-14",28,815,"AFTER LYING DOWN FOR 5 MINUTES","End of Treatment",99,76,83,-7,-8.43373493976,5,"WEEK 4",16,"Y",""],["CDISCPILOT01","701","01-701-1033",74,"65-80",2,"WHITE",1,"M","Y","2014-03-18","2014-03-31","Xanomeline Low Dose",54,"Xanomeline Low Dose",54,"DIABP","Diastolic Blood Pressure (mmHg)",2,"2014-09-15",182,815,"AFTER LYING DOWN FOR 5 MINUTES","",null,79,83,-4,-4.81927710843,201,"RETRIEVAL",19,"",""],["CDISCPILOT01","701","01-701-1033",74,"65-80",2,"WHITE",1,"M","Y","2014-03-18","2014-03-31","Xanomeline Low Dose",54,"Xanomeline Low Dose",54,"DIABP","Diastolic Blood Pressure (mmHg)",2,"2014-03-10",-8,816,"AFTER STANDING FOR 1 MINUTE","",null,67,67,0,0,1,"SCREENING 1",2,"",""],["CDISCPILOT01","701","01-701-1033",74,"65-80",2,"WHITE",1,"M","Y","2014-03-18","2014-03-31","Xanomeline Low Dose",54,"Xanomeline Low Dose",54,"DIABP","Diastolic Blood Pressure (mmHg)",2,"2014-03-16",-2,816,"AFTER STANDING FOR 1 MINUTE","",null,60,67,-7,-10.447761194,2,"SCREENING 2",5,"",""],["CDISCPILOT01","701","01-701-1033",74,"65-80",2,"WHITE",1,"M","Y","2014-03-18","2014-03-31","Xanomeline Low Dose",54,"Xanomeline Low Dose",54,"DIABP","Diastolic Blood Pressure (mmHg)",2,"2014-03-18",1,816,"AFTER STANDING FOR 1 MINUTE","Baseline",0,67,67,0,0,3,"BASELINE",8,"Y","Y"],["CDISCPILOT01","701","01-701-1033",74,"65-80",2,"WHITE",1,"M","Y","2014-03-18","2014-03-31","Xanomeline Low Dose",54,"Xanomeline Low Dose",54,"DIABP","Diastolic Blood Pressure (mmHg)",2,"2014-03-31",14,816,"AFTER STANDING FOR 1 MINUTE","",null,81,67,14,20.8955223881,3.5,"AMBUL ECG PLACEMENT",11,"",""],["CDISCPILOT01","701","01-701-1033",74,"65-80",2,"WHITE",1,"M","Y","2014-03-18","2014-03-31","Xanomeline Low Dose",54,"Xanomeline Low Dose",54,"DIABP","Diastolic Blood Pressure (mmHg)",2,"2014-04-01",15,816,"AFTER STANDING FOR 1 MINUTE","Week 2",2,72,67,5,7.46268656716,4,"WEEK 2",14,"Y",""],["CDISCPILOT01","701","01-701-1033",74,"65-80",2,"WHITE",1,"M","Y","2014-03-18","2014-03-31","Xanomeline Low Dose",54,"Xanomeline Low Dose",54,"DIABP","Diastolic Blood Pressure (mmHg)",2,"2014-04-14",28,816,"AFTER STANDING FOR 1 MINUTE","Week 4",4,67,67,0,0,5,"WEEK 4",17,"Y",""],["CDISCPILOT01","701","01-701-1033",74,"65-80",2,"WHITE",1,"M","Y","2014-03-18","2014-03-31","Xanomeline Low Dose",54,"Xanomeline Low Dose",54,"DIABP","Diastolic Blood Pressure (mmHg)",2,"2014-04-14",28,816,"AFTER STANDING FOR 1 MINUTE","End of Treatment",99,67,67,0,0,5,"WEEK 4",17,"Y",""],["CDISCPILOT01","701","01-701-1033",74,"65-80",2,"WHITE",1,"M","Y","2014-03-18","2014-03-31","Xanomeline Low Dose",54,"Xanomeline Low Dose",54,"DIABP","Diastolic Blood Pressure (mmHg)",2,"2014-09-15",182,816,"AFTER STANDING FOR 1 MINUTE","",null,71,67,4,5.97014925373,201,"RETRIEVAL",20,"",""],["CDISCPILOT01","701","01-701-1033",74,"65-80",2,"WHITE",1,"M","Y","2014-03-18","2014-03-31","Xanomeline Low Dose",54,"Xanomeline Low Dose",54,"DIABP","Diastolic Blood Pressure (mmHg)",2,"2014-03-10",-8,817,"AFTER STANDING FOR 3 MINUTES","",null,72,70,2,2.85714285714,1,"SCREENING 1",3,"",""],["CDISCPILOT01","701","01-701-1033",74,"65-80",2,"WHITE",1,"M","Y","2014-03-18","2014-03-31","Xanomeline Low Dose",54,"Xanomeline Low Dose",54,"DIABP","Diastolic Blood Pressure (mmHg)",2,"2014-03-16",-2,817,"AFTER STANDING FOR 3 MINUTES","",null,62,70,-8,-11.4285714286,2,"SCREENING 2",6,"",""],["CDISCPILOT01","701","01-701-1033",74,"65-80",2,"WHITE",1,"M","Y","2014-03-18","2014-03-31","Xanomeline Low Dose",54,"Xanomeline Low Dose",54,"DIABP","Diastolic Blood Pressure (mmHg)",2,"2014-03-18",1,817,"AFTER STANDING FOR 3 MINUTES","Baseline",0,70,70,0,0,3,"BASELINE",9,"Y","Y"],["CDISCPILOT01","701","01-701-1033",74,"65-80",2,"WHITE",1,"M","Y","2014-03-18","2014-03-31","Xanomeline Low Dose",54,"Xanomeline Low Dose",54,"DIABP","Diastolic Blood Pressure (mmHg)",2,"2014-03-31",14,817,"AFTER STANDING FOR 3 MINUTES","",null,85,70,15,21.4285714286,3.5,"AMBUL ECG PLACEMENT",12,"",""],["CDISCPILOT01","701","01-701-1033",74,"65-80",2,"WHITE",1,"M","Y","2014-03-18","2014-03-31","Xanomeline Low Dose",54,"Xanomeline Low Dose",54,"DIABP","Diastolic Blood Pressure (mmHg)",2,"2014-04-01",15,817,"AFTER STANDING FOR 3 MINUTES","Week 2",2,76,70,6,8.57142857143,4,"WEEK 2",15,"Y",""],["CDISCPILOT01","701","01-701-1033",74,"65-80",2,"WHITE",1,"M","Y","2014-03-18","2014-03-31","Xanomeline Low Dose",54,"Xanomeline Low Dose",54,"DIABP","Diastolic Blood Pressure (mmHg)",2,"2014-04-14",28,817,"AFTER STANDING FOR 3 MINUTES","Week 4",4,67,70,-3,-4.28571428571,5,"WEEK 4",18,"Y",""],["CDISCPILOT01","701","01-701-1033",74,"65-80",2,"WHITE",1,"M","Y","2014-03-18","2014-03-31","Xanomeline Low Dose",54,"Xanomeline Low Dose",54,"DIABP","Diastolic Blood Pressure (mmHg)",2,"2014-04-14",28,817,"AFTER STANDING FOR 3 MINUTES","End of Treatment",99,67,70,-3,-4.28571428571,5,"WEEK 4",18,"Y",""],["CDISCPILOT01","701","01-701-1033",74,"65-80",2,"WHITE",1,"M","Y","2014-03-18","2014-03-31","Xanomeline Low Dose",54,"Xanomeline Low Dose",54,"DIABP","Diastolic Blood Pressure (mmHg)",2,"2014-09-15",182,817,"AFTER STANDING FOR 3 MINUTES","",null,60,70,-10,-14.2857142857,201,"RETRIEVAL",21,"",""],["CDISCPILOT01","701","01-701-1033",74,"65-80",2,"WHITE",1,"M","Y","2014-03-18","2014-03-31","Xanomeline Low Dose",54,"Xanomeline Low Dose",54,"HEIGHT","Height (cm)",5,"2014-03-10",-8,null,"","",null,175.26,null,null,null,1,"SCREENING 1",22,"",""],["CDISCPILOT01","701","01-701-1033",74,"65-80",2,"WHITE",1,"M","Y","2014-03-18","2014-03-31","Xanomeline Low Dose",54,"Xanomeline Low Dose",54,"PULSE","Pulse Rate (BEATS/MIN)",3,"2014-03-10",-8,815,"AFTER LYING DOWN FOR 5 MINUTES","",null,59,55,4,7.27272727273,1,"SCREENING 1",23,"",""],["CDISCPILOT01","701","01-701-1033",74,"65-80",2,"WHITE",1,"M","Y","2014-03-18","2014-03-31","Xanomeline Low Dose",54,"Xanomeline Low Dose",54,"PULSE","Pulse Rate (BEATS/MIN)",3,"2014-03-16",-2,815,"AFTER LYING DOWN FOR 5 MINUTES","",null,67,55,12,21.8181818182,2,"SCREENING 2",26,"",""],["CDISCPILOT01","701","01-701-1033",74,"65-80",2,"WHITE",1,"M","Y","2014-03-18","2014-03-31","Xanomeline Low Dose",54,"Xanomeline Low Dose",54,"PULSE","Pulse Rate (BEATS/MIN)",3,"2014-03-18",1,815,"AFTER LYING DOWN FOR 5 MINUTES","Baseline",0,55,55,0,0,3,"BASELINE",29,"Y","Y"],["CDISCPILOT01","701","01-701-1033",74,"65-80",2,"WHITE",1,"M","Y","2014-03-18","2014-03-31","Xanomeline Low Dose",54,"Xanomeline Low Dose",54,"PULSE","Pulse Rate (BEATS/MIN)",3,"2014-03-31",14,815,"AFTER LYING DOWN FOR 5 MINUTES","",null,62,55,7,12.7272727273,3.5,"AMBUL ECG PLACEMENT",32,"",""],["CDISCPILOT01","701","01-701-1033",74,"65-80",2,"WHITE",1,"M","Y","2014-03-18","2014-03-31","Xanomeline Low Dose",54,"Xanomeline Low Dose",54,"PULSE","Pulse Rate (BEATS/MIN)",3,"2014-04-01",15,815,"AFTER LYING DOWN FOR 5 MINUTES","Week 2",2,59,55,4,7.27272727273,4,"WEEK 2",35,"Y",""],["CDISCPILOT01","701","01-701-1033",74,"65-80",2,"WHITE",1,"M","Y","2014-03-18","2014-03-31","Xanomeline Low Dose",54,"Xanomeline Low Dose",54,"PULSE","Pulse Rate (BEATS/MIN)",3,"2014-04-14",28,815,"AFTER LYING DOWN FOR 5 MINUTES","Week 4",4,54,55,-1,-1.81818181818,5,"WEEK 4",38,"Y",""],["CDISCPILOT01","701","01-701-1033",74,"65-80",2,"WHITE",1,"M","Y","2014-03-18","2014-03-31","Xanomeline Low Dose",54,"Xanomeline Low Dose",54,"PULSE","Pulse Rate (BEATS/MIN)",3,"2014-04-14",28,815,"AFTER LYING DOWN FOR 5 MINUTES","End of Treatment",99,54,55,-1,-1.81818181818,5,"WEEK 4",38,"Y",""],["CDISCPILOT01","701","01-701-1033",74,"65-80",2,"WHITE",1,"M","Y","2014-03-18","2014-03-31","Xanomeline Low Dose",54,"Xanomeline Low Dose",54,"PULSE","Pulse Rate (BEATS/MIN)",3,"2014-09-15",182,815,"AFTER LYING DOWN FOR 5 MINUTES","",null,50,55,-5,-9.09090909091,201,"RETRIEVAL",41,"",""],["CDISCPILOT01","701","01-701-1033",74,"65-80",2,"WHITE",1,"M","Y","2014-03-18","2014-03-31","Xanomeline Low Dose",54,"Xanomeline Low Dose",54,"PULSE","Pulse Rate (BEATS/MIN)",3,"2014-03-10",-8,816,"AFTER STANDING FOR 1 MINUTE","",null,70,64,6,9.375,1,"SCREENING 1",24,"",""],["CDISCPILOT01","701","01-701-1033",74,"65-80",2,"WHITE",1,"M","Y","2014-03-18","2014-03-31","Xanomeline Low Dose",54,"Xanomeline Low Dose",54,"PULSE","Pulse Rate (BEATS/MIN)",3,"2014-03-16",-2,816,"AFTER STANDING FOR 1 MINUTE","",null,80,64,16,25,2,"SCREENING 2",27,"",""],["CDISCPILOT01","701","01-701-1033",74,"65-80",2,"WHITE",1,"M","Y","2014-03-18","2014-03-31","Xanomeline Low Dose",54,"Xanomeline Low Dose",54,"PULSE","Pulse Rate (BEATS/MIN)",3,"2014-03-18",1,816,"AFTER STANDING FOR 1 MINUTE","Baseline",0,64,64,0,0,3,"BASELINE",30,"Y","Y"],["CDISCPILOT01","701","01-701-1033",74,"65-80",2,"WHITE",1,"M","Y","2014-03-18","2014-03-31","Xanomeline Low Dose",54,"Xanomeline Low Dose",54,"PULSE","Pulse Rate (BEATS/MIN)",3,"2014-03-31",14,816,"AFTER STANDING FOR 1 MINUTE","",null,62,64,-2,-3.125,3.5,"AMBUL ECG PLACEMENT",33,"",""],["CDISCPILOT01","701","01-701-1033",74,"65-80",2,"WHITE",1,"M","Y","2014-03-18","2014-03-31","Xanomeline Low Dose",54,"Xanomeline Low Dose",54,"PULSE","Pulse Rate (BEATS/MIN)",3,"2014-04-01",15,816,"AFTER STANDING FOR 1 MINUTE","Week 2",2,62,64,-2,-3.125,4,"WEEK 2",36,"Y",""],["CDISCPILOT01","701","01-701-1033",74,"65-80",2,"WHITE",1,"M","Y","2014-03-18","2014-03-31","Xanomeline Low Dose",54,"Xanomeline Low Dose",54,"PULSE","Pulse Rate (BEATS/MIN)",3,"2014-04-14",28,816,"AFTER STANDING FOR 1 MINUTE","Week 4",4,57,64,-7,-10.9375,5,"WEEK 4",39,"Y",""],["CDISCPILOT01","701","01-701-1033",74,"65-80",2,"WHITE",1,"M","Y","2014-03-18","2014-03-31","Xanomeline Low Dose",54,"Xanomeline Low Dose",54,"PULSE","Pulse Rate (BEATS/MIN)",3,"2014-04-14",28,816,"AFTER STANDING FOR 1 MINUTE","End of Treatment",99,57,64,-7,-10.9375,5,"WEEK 4",39,"Y",""],["CDISCPILOT01","701","01-701-1033",74,"65-80",2,"WHITE",1,"M","Y","2014-03-18","2014-03-31","Xanomeline Low Dose",54,"Xanomeline Low Dose",54,"PULSE","Pulse Rate (BEATS/MIN)",3,"2014-09-15",182,816,"AFTER STANDING FOR 1 MINUTE","",null,55,64,-9,-14.0625,201,"RETRIEVAL",42,"",""],["CDISCPILOT01","701","01-701-1033",74,"65-80",2,"WHITE",1,"M","Y","2014-03-18","2014-03-31","Xanomeline Low Dose",54,"Xanomeline Low Dose",54,"PULSE","Pulse Rate (BEATS/MIN)",3,"2014-03-10",-8,817,"AFTER STANDING FOR 3 MINUTES","",null,67,62,5,8.06451612903,1,"SCREENING 1",25,"",""],["CDISCPILOT01","701","01-701-1033",74,"65-80",2,"WHITE",1,"M","Y","2014-03-18","2014-03-31","Xanomeline Low Dose",54,"Xanomeline Low Dose",54,"PULSE","Pulse Rate (BEATS/MIN)",3,"2014-03-16",-2,817,"AFTER STANDING FOR 3 MINUTES","",null,82,62,20,32.2580645161,2,"SCREENING 2",28,"",""],["CDISCPILOT01","701","01-701-1033",74,"65-80",2,"WHITE",1,"M","Y","2014-03-18","2014-03-31","Xanomeline Low Dose",54,"Xanomeline Low Dose",54,"PULSE","Pulse Rate (BEATS/MIN)",3,"2014-03-18",1,817,"AFTER STANDING FOR 3 MINUTES","Baseline",0,62,62,0,0,3,"BASELINE",31,"Y","Y"],["CDISCPILOT01","701","01-701-1033",74,"65-80",2,"WHITE",1,"M","Y","2014-03-18","2014-03-31","Xanomeline Low Dose",54,"Xanomeline Low Dose",54,"PULSE","Pulse Rate (BEATS/MIN)",3,"2014-03-31",14,817,"AFTER STANDING FOR 3 MINUTES","",null,60,62,-2,-3.22580645161,3.5,"AMBUL ECG PLACEMENT",34,"",""],["CDISCPILOT01","701","01-701-1033",74,"65-80",2,"WHITE",1,"M","Y","2014-03-18","2014-03-31","Xanomeline Low Dose",54,"Xanomeline Low Dose",54,"PULSE","Pulse Rate (BEATS/MIN)",3,"2014-04-01",15,817,"AFTER STANDING FOR 3 MINUTES","Week 2",2,62,62,0,0,4,"WEEK 2",37,"Y",""],["CDISCPILOT01","701","01-701-1033",74,"65-80",2,"WHITE",1,"M","Y","2014-03-18","2014-03-31","Xanomeline Low Dose",54,"Xanomeline Low Dose",54,"PULSE","Pulse Rate (BEATS/MIN)",3,"2014-04-14",28,817,"AFTER STANDING FOR 3 MINUTES","Week 4",4,58,62,-4,-6.45161290323,5,"WEEK 4",40,"Y",""],["CDISCPILOT01","701","01-701-1033",74,"65-80",2,"WHITE",1,"M","Y","2014-03-18","2014-03-31","Xanomeline Low Dose",54,"Xanomeline Low Dose",54,"PULSE","Pulse Rate (BEATS/MIN)",3,"2014-04-14",28,817,"AFTER STANDING FOR 3 MINUTES","End of Treatment",99,58,62,-4,-6.45161290323,5,"WEEK 4",40,"Y",""],["CDISCPILOT01","701","01-701-1033",74,"65-80",2,"WHITE",1,"M","Y","2014-03-18","2014-03-31","Xanomeline Low Dose",54,"Xanomeline Low Dose",54,"PULSE","Pulse Rate (BEATS/MIN)",3,"2014-09-15",182,817,"AFTER STANDING FOR 3 MINUTES","",null,50,62,-12,-19.3548387097,201,"RETRIEVAL",43,"",""],["CDISCPILOT01","701","01-701-1033",74,"65-80",2,"WHITE",1,"M","Y","2014-03-18","2014-03-31","Xanomeline Low Dose",54,"Xanomeline Low Dose",54,"SYSBP","Systolic Blood Pressure (mmHg)",1,"2014-03-10",-8,815,"AFTER LYING DOWN FOR 5 MINUTES","",null,128,136,-8,-5.88235294118,1,"SCREENING 1",44,"",""],["CDISCPILOT01","701","01-701-1033",74,"65-80",2,"WHITE",1,"M","Y","2014-03-18","2014-03-31","Xanomeline Low Dose",54,"Xanomeline Low Dose",54,"SYSBP","Systolic Blood Pressure (mmHg)",1,"2014-03-16",-2,815,"AFTER LYING DOWN FOR 5 MINUTES","",null,115,136,-21,-15.4411764706,2,"SCREENING 2",47,"",""],["CDISCPILOT01","701","01-701-1033",74,"65-80",2,"WHITE",1,"M","Y","2014-03-18","2014-03-31","Xanomeline Low Dose",54,"Xanomeline Low Dose",54,"SYSBP","Systolic Blood Pressure (mmHg)",1,"2014-03-18",1,815,"AFTER LYING DOWN FOR 5 MINUTES","Baseline",0,136,136,0,0,3,"BASELINE",50,"Y","Y"],["CDISCPILOT01","701","01-701-1033",74,"65-80",2,"WHITE",1,"M","Y","2014-03-18","2014-03-31","Xanomeline Low Dose",54,"Xanomeline Low Dose",54,"SYSBP","Systolic Blood Pressure (mmHg)",1,"2014-03-31",14,815,"AFTER LYING DOWN FOR 5 MINUTES","",null,151,136,15,11.0294117647,3.5,"AMBUL ECG PLACEMENT",53,"",""],["CDISCPILOT01","701","01-701-1033",74,"65-80",2,"WHITE",1,"M","Y","2014-03-18","2014-03-31","Xanomeline Low Dose",54,"Xanomeline Low Dose",54,"SYSBP","Systolic Blood Pressure (mmHg)",1,"2014-04-01",15,815,"AFTER LYING DOWN FOR 5 MINUTES","Week 2",2,138,136,2,1.47058823529,4,"WEEK 2",56,"Y",""],["CDISCPILOT01","701","01-701-1033",74,"65-80",2,"WHITE",1,"M","Y","2014-03-18","2014-03-31","Xanomeline Low Dose",54,"Xanomeline Low Dose",54,"SYSBP","Systolic Blood Pressure (mmHg)",1,"2014-04-14",28,815,"AFTER LYING DOWN FOR 5 MINUTES","Week 4",4,130,136,-6,-4.41176470588,5,"WEEK 4",59,"Y",""],["CDISCPILOT01","701","01-701-1033",74,"65-80",2,"WHITE",1,"M","Y","2014-03-18","2014-03-31","Xanomeline Low Dose",54,"Xanomeline Low Dose",54,"SYSBP","Systolic Blood Pressure (mmHg)",1,"2014-04-14",28,815,"AFTER LYING DOWN FOR 5 MINUTES","End of Treatment",99,130,136,-6,-4.41176470588,5,"WEEK 4",59,"Y",""],["CDISCPILOT01","701","01-701-1033",74,"65-80",2,"WHITE",1,"M","Y","2014-03-18","2014-03-31","Xanomeline Low Dose",54,"Xanomeline Low Dose",54,"SYSBP","Systolic Blood Pressure (mmHg)",1,"2014-09-15",182,815,"AFTER LYING DOWN FOR 5 MINUTES","",null,130,136,-6,-4.41176470588,201,"RETRIEVAL",62,"",""],["CDISCPILOT01","701","01-701-1033",74,"65-80",2,"WHITE",1,"M","Y","2014-03-18","2014-03-31","Xanomeline Low Dose",54,"Xanomeline Low Dose",54,"SYSBP","Systolic Blood Pressure (mmHg)",1,"2014-03-10",-8,816,"AFTER STANDING FOR 1 MINUTE","",null,117,116,1,0.862068965517,1,"SCREENING 1",45,"",""],["CDISCPILOT01","701","01-701-1033",74,"65-80",2,"WHITE",1,"M","Y","2014-03-18","2014-03-31","Xanomeline Low Dose",54,"Xanomeline Low Dose",54,"SYSBP","Systolic Blood Pressure (mmHg)",1,"2014-03-16",-2,816,"AFTER STANDING FOR 1 MINUTE","",null,102,116,-14,-12.0689655172,2,"SCREENING 2",48,"",""],["CDISCPILOT01","701","01-701-1033",74,"65-80",2,"WHITE",1,"M","Y","2014-03-18","2014-03-31","Xanomeline Low Dose",54,"Xanomeline Low Dose",54,"SYSBP","Systolic Blood Pressure (mmHg)",1,"2014-03-18",1,816,"AFTER STANDING FOR 1 MINUTE","Baseline",0,116,116,0,0,3,"BASELINE",51,"Y","Y"],["CDISCPILOT01","701","01-701-1033",74,"65-80",2,"WHITE",1,"M","Y","2014-03-18","2014-03-31","Xanomeline Low Dose",54,"Xanomeline Low Dose",54,"SYSBP","Systolic Blood Pressure (mmHg)",1,"2014-03-31",14,816,"AFTER STANDING FOR 1 MINUTE","",null,139,116,23,19.8275862069,3.5,"AMBUL ECG PLACEMENT",54,"",""],["CDISCPILOT01","701","01-701-1033",74,"65-80",2,"WHITE",1,"M","Y","2014-03-18","2014-03-31","Xanomeline Low Dose",54,"Xanomeline Low Dose",54,"SYSBP","Systolic Blood Pressure (mmHg)",1,"2014-04-01",15,816,"AFTER STANDING FOR 1 MINUTE","Week 2",2,118,116,2,1.72413793103,4,"WEEK 2",57,"Y",""],["CDISCPILOT01","701","01-701-1033",74,"65-80",2,"WHITE",1,"M","Y","2014-03-18","2014-03-31","Xanomeline Low Dose",54,"Xanomeline Low Dose",54,"SYSBP","Systolic Blood Pressure (mmHg)",1,"2014-04-14",28,816,"AFTER STANDING FOR 1 MINUTE","Week 4",4,122,116,6,5.1724137931,5,"WEEK 4",60,"Y",""],["CDISCPILOT01","701","01-701-1033",74,"65-80",2,"WHITE",1,"M","Y","2014-03-18","2014-03-31","Xanomeline Low Dose",54,"Xanomeline Low Dose",54,"SYSBP","Systolic Blood Pressure (mmHg)",1,"2014-04-14",28,816,"AFTER STANDING FOR 1 MINUTE","End of Treatment",99,122,116,6,5.1724137931,5,"WEEK 4",60,"Y",""],["CDISCPILOT01","701","01-701-1033",74,"65-80",2,"WHITE",1,"M","Y","2014-03-18","2014-03-31","Xanomeline Low Dose",54,"Xanomeline Low Dose",54,"SYSBP","Systolic Blood Pressure (mmHg)",1,"2014-09-15",182,816,"AFTER STANDING FOR 1 MINUTE","",null,122,116,6,5.1724137931,201,"RETRIEVAL",63,"",""],["CDISCPILOT01","701","01-701-1033",74,"65-80",2,"WHITE",1,"M","Y","2014-03-18","2014-03-31","Xanomeline Low Dose",54,"Xanomeline Low Dose",54,"SYSBP","Systolic Blood Pressure (mmHg)",1,"2014-03-10",-8,817,"AFTER STANDING FOR 3 MINUTES","",null,121,121,0,0,1,"SCREENING 1",46,"",""],["CDISCPILOT01","701","01-701-1033",74,"65-80",2,"WHITE",1,"M","Y","2014-03-18","2014-03-31","Xanomeline Low Dose",54,"Xanomeline Low Dose",54,"SYSBP","Systolic Blood Pressure (mmHg)",1,"2014-03-16",-2,817,"AFTER STANDING FOR 3 MINUTES","",null,124,121,3,2.47933884298,2,"SCREENING 2",49,"",""],["CDISCPILOT01","701","01-701-1033",74,"65-80",2,"WHITE",1,"M","Y","2014-03-18","2014-03-31","Xanomeline Low Dose",54,"Xanomeline Low Dose",54,"SYSBP","Systolic Blood Pressure (mmHg)",1,"2014-03-18",1,817,"AFTER STANDING FOR 3 MINUTES","Baseline",0,121,121,0,0,3,"BASELINE",52,"Y","Y"],["CDISCPILOT01","701","01-701-1033",74,"65-80",2,"WHITE",1,"M","Y","2014-03-18","2014-03-31","Xanomeline Low Dose",54,"Xanomeline Low Dose",54,"SYSBP","Systolic Blood Pressure (mmHg)",1,"2014-03-31",14,817,"AFTER STANDING FOR 3 MINUTES","",null,139,121,18,14.8760330579,3.5,"AMBUL ECG PLACEMENT",55,"",""],["CDISCPILOT01","701","01-701-1033",74,"65-80",2,"WHITE",1,"M","Y","2014-03-18","2014-03-31","Xanomeline Low Dose",54,"Xanomeline Low Dose",54,"SYSBP","Systolic Blood Pressure (mmHg)",1,"2014-04-01",15,817,"AFTER STANDING FOR 3 MINUTES","Week 2",2,130,121,9,7.43801652893,4,"WEEK 2",58,"Y",""],["CDISCPILOT01","701","01-701-1033",74,"65-80",2,"WHITE",1,"M","Y","2014-03-18","2014-03-31","Xanomeline Low Dose",54,"Xanomeline Low Dose",54,"SYSBP","Systolic Blood Pressure (mmHg)",1,"2014-04-14",28,817,"AFTER STANDING FOR 3 MINUTES","Week 4",4,125,121,4,3.30578512397,5,"WEEK 4",61,"Y",""],["CDISCPILOT01","701","01-701-1033",74,"65-80",2,"WHITE",1,"M","Y","2014-03-18","2014-03-31","Xanomeline Low Dose",54,"Xanomeline Low Dose",54,"SYSBP","Systolic Blood Pressure (mmHg)",1,"2014-04-14",28,817,"AFTER STANDING FOR 3 MINUTES","End of Treatment",99,125,121,4,3.30578512397,5,"WEEK 4",61,"Y",""],["CDISCPILOT01","701","01-701-1033",74,"65-80",2,"WHITE",1,"M","Y","2014-03-18","2014-03-31","Xanomeline Low Dose",54,"Xanomeline Low Dose",54,"SYSBP","Systolic Blood Pressure (mmHg)",1,"2014-09-15",182,817,"AFTER STANDING FOR 3 MINUTES","",null,123,121,2,1.65289256198,201,"RETRIEVAL",64,"",""],["CDISCPILOT01","701","01-701-1033",74,"65-80",2,"WHITE",1,"M","Y","2014-03-18","2014-03-31","Xanomeline Low Dose",54,"Xanomeline Low Dose",54,"TEMP","Temperature (C)",6,"2014-03-10",-8,null,"","",null,37.06,37.11,-0.05,-0.134734572891,1,"SCREENING 1",65,"",""],["CDISCPILOT01","701","01-701-1033",74,"65-80",2,"WHITE",1,"M","Y","2014-03-18","2014-03-31","Xanomeline Low Dose",54,"Xanomeline Low Dose",54,"TEMP","Temperature (C)",6,"2014-03-16",-2,null,"","",null,37.17,37.11,0.06,0.16168148747,2,"SCREENING 2",66,"",""],["CDISCPILOT01","701","01-701-1033",74,"65-80",2,"WHITE",1,"M","Y","2014-03-18","2014-03-31","Xanomeline Low Dose",54,"Xanomeline Low Dose",54,"TEMP","Temperature (C)",6,"2014-03-18",1,null,"","Baseline",0,37.11,37.11,0,0,3,"BASELINE",67,"Y","Y"],["CDISCPILOT01","701","01-701-1033",74,"65-80",2,"WHITE",1,"M","Y","2014-03-18","2014-03-31","Xanomeline Low Dose",54,"Xanomeline Low Dose",54,"TEMP","Temperature (C)",6,"2014-03-31",14,null,"","",null,36.67,37.11,-0.44,-1.18566424144,3.5,"AMBUL ECG PLACEMENT",68,"",""],["CDISCPILOT01","701","01-701-1033",74,"65-80",2,"WHITE",1,"M","Y","2014-03-18","2014-03-31","Xanomeline Low Dose",54,"Xanomeline Low Dose",54,"TEMP","Temperature (C)",6,"2014-04-01",15,null,"","Week 2",2,36.72,37.11,-0.39,-1.05092966855,4,"WEEK 2",69,"Y",""],["CDISCPILOT01","701","01-701-1033",74,"65-80",2,"WHITE",1,"M","Y","2014-03-18","2014-03-31","Xanomeline Low Dose",54,"Xanomeline Low Dose",54,"TEMP","Temperature (C)",6,"2014-04-14",28,null,"","Week 4",4,36.72,37.11,-0.39,-1.05092966855,5,"WEEK 4",70,"Y",""],["CDISCPILOT01","701","01-701-1033",74,"65-80",2,"WHITE",1,"M","Y","2014-03-18","2014-03-31","Xanomeline Low Dose",54,"Xanomeline Low Dose",54,"TEMP","Temperature (C)",6,"2014-04-14",28,null,"","End of Treatment",99,36.72,37.11,-0.39,-1.05092966855,5,"WEEK 4",70,"Y",""],["CDISCPILOT01","701","01-701-1033",74,"65-80",2,"WHITE",1,"M","Y","2014-03-18","2014-03-31","Xanomeline Low Dose",54,"Xanomeline Low Dose",54,"TEMP","Temperature (C)",6,"2014-09-15",182,null,"","",null,36.72,37.11,-0.39,-1.05092966855,201,"RETRIEVAL",71,"",""],["CDISCPILOT01","701","01-701-1033",74,"65-80",2,"WHITE",1,"M","Y","2014-03-18","2014-03-31","Xanomeline Low Dose",54,"Xanomeline Low Dose",54,"WEIGHT","Weight (kg)",4,"2014-03-10",-8,null,"","",null,88.45,88.45,0,0,1,"SCREENING 1",72,"",""],["CDISCPILOT01","701","01-701-1033",74,"65-80",2,"WHITE",1,"M","Y","2014-03-18","2014-03-31","Xanomeline Low Dose",54,"Xanomeline Low Dose",54,"WEIGHT","Weight (kg)",4,"2014-03-18",1,null,"","Baseline",0,88.45,88.45,0,0,3,"BASELINE",73,"Y","Y"],["CDISCPILOT01","701","01-701-1033",74,"65-80",2,"WHITE",1,"M","Y","2014-03-18","2014-03-31","Xanomeline Low Dose",54,"Xanomeline Low Dose",54,"WEIGHT","Weight (kg)",4,"2014-04-01",15,null,"","Week 2",2,89.36,88.45,0.91,1.02882984737,4,"WEEK 2",74,"Y",""],["CDISCPILOT01","701","01-701-1033",74,"65-80",2,"WHITE",1,"M","Y","2014-03-18","2014-03-31","Xanomeline Low Dose",54,"Xanomeline Low Dose",54,"WEIGHT","Weight (kg)",4,"2014-04-14",28,null,"","Week 4",4,88.45,88.45,0,0,5,"WEEK 4",75,"Y",""],["CDISCPILOT01","701","01-701-1033",74,"65-80",2,"WHITE",1,"M","Y","2014-03-18","2014-03-31","Xanomeline Low Dose",54,"Xanomeline Low Dose",54,"WEIGHT","Weight (kg)",4,"2014-04-14",28,null,"","End of Treatment",99,88.45,88.45,0,0,5,"WEEK 4",75,"Y",""],["CDISCPILOT01","701","01-701-1034",77,"65-80",2,"WHITE",1,"F","Y","2014-07-01","2014-12-30","Xanomeline High Dose",81,"Xanomeline High Dose",81,"DIABP","Diastolic Blood Pressure (mmHg)",2,"2014-06-24",-7,815,"AFTER LYING DOWN FOR 5 MINUTES","",null,58,60,-2,-3.33333333333,1,"SCREENING 1",1,"",""],["CDISCPILOT01","701","01-701-1034",77,"65-80",2,"WHITE",1,"F","Y","2014-07-01","2014-12-30","Xanomeline High Dose",81,"Xanomeline High Dose",81,"DIABP","Diastolic Blood Pressure (mmHg)",2,"2014-06-29",-2,815,"AFTER LYING DOWN FOR 5 MINUTES","",null,62,60,2,3.33333333333,2,"SCREENING 2",4,"",""],["CDISCPILOT01","701","01-701-1034",77,"65-80",2,"WHITE",1,"F","Y","2014-07-01","2014-12-30","Xanomeline High Dose",81,"Xanomeline High Dose",81,"DIABP","Diastolic Blood Pressure (mmHg)",2,"2014-07-01",1,815,"AFTER LYING DOWN FOR 5 MINUTES","Baseline",0,60,60,0,0,3,"BASELINE",7,"Y","Y"],["CDISCPILOT01","701","01-701-1034",77,"65-80",2,"WHITE",1,"F","Y","2014-07-01","2014-12-30","Xanomeline High Dose",81,"Xanomeline High Dose",81,"DIABP","Diastolic Blood Pressure (mmHg)",2,"2014-07-15",15,815,"AFTER LYING DOWN FOR 5 MINUTES","Week 2",2,81,60,21,35,4,"WEEK 2",10,"Y",""],["CDISCPILOT01","701","01-701-1034",77,"65-80",2,"WHITE",1,"F","Y","2014-07-01","2014-12-30","Xanomeline High Dose",81,"Xanomeline High Dose",81,"DIABP","Diastolic Blood Pressure (mmHg)",2,"2014-07-29",29,815,"AFTER LYING DOWN FOR 5 MINUTES","Week 4",4,71,60,11,18.3333333333,5,"WEEK 4",13,"Y",""],["CDISCPILOT01","701","01-701-1034",77,"65-80",2,"WHITE",1,"F","Y","2014-07-01","2014-12-30","Xanomeline High Dose",81,"Xanomeline High Dose",81,"DIABP","Diastolic Blood Pressure (mmHg)",2,"2014-07-31",31,815,"AFTER LYING DOWN FOR 5 MINUTES","",null,54,60,-6,-10,6,"AMBUL ECG REMOVAL",16,"",""],["CDISCPILOT01","701","01-701-1034",77,"65-80",2,"WHITE",1,"F","Y","2014-07-01","2014-12-30","Xanomeline High Dose",81,"Xanomeline High Dose",81,"DIABP","Diastolic Blood Pressure (mmHg)",2,"2014-08-11",42,815,"AFTER LYING DOWN FOR 5 MINUTES","Week 6",6,57,60,-3,-5,7,"WEEK 6",19,"Y",""],["CDISCPILOT01","701","01-701-1034",77,"65-80",2,"WHITE",1,"F","Y","2014-07-01","2014-12-30","Xanomeline High Dose",81,"Xanomeline High Dose",81,"DIABP","Diastolic Blood Pressure (mmHg)",2,"2014-08-26",57,815,"AFTER LYING DOWN FOR 5 MINUTES","Week 8",8,73,60,13,21.6666666667,8,"WEEK 8",22,"Y",""],["CDISCPILOT01","701","01-701-1034",77,"65-80",2,"WHITE",1,"F","Y","2014-07-01","2014-12-30","Xanomeline High Dose",81,"Xanomeline High Dose",81,"DIABP","Diastolic Blood Pressure (mmHg)",2,"2014-09-25",87,815,"AFTER LYING DOWN FOR 5 MINUTES","Week 12",12,71,60,11,18.3333333333,9,"WEEK 12",25,"Y",""],["CDISCPILOT01","701","01-701-1034",77,"65-80",2,"WHITE",1,"F","Y","2014-07-01","2014-12-30","Xanomeline High Dose",81,"Xanomeline High Dose",81,"DIABP","Diastolic Blood Pressure (mmHg)",2,"2014-10-21",113,815,"AFTER LYING DOWN FOR 5 MINUTES","Week 16",16,87,60,27,45,10,"WEEK 16",28,"Y",""],["CDISCPILOT01","701","01-701-1034",77,"65-80",2,"WHITE",1,"F","Y","2014-07-01","2014-12-30","Xanomeline High Dose",81,"Xanomeline High Dose",81,"DIABP","Diastolic Blood Pressure (mmHg)",2,"2014-11-18",141,815,"AFTER LYING DOWN FOR 5 MINUTES","Week 20",20,78,60,18,30,11,"WEEK 20",31,"Y",""],["CDISCPILOT01","701","01-701-1034",77,"65-80",2,"WHITE",1,"F","Y","2014-07-01","2014-12-30","Xanomeline High Dose",81,"Xanomeline High Dose",81,"DIABP","Diastolic Blood Pressure (mmHg)",2,"2014-12-17",170,815,"AFTER LYING DOWN FOR 5 MINUTES","Week 24",24,81,60,21,35,12,"WEEK 24",34,"Y",""],["CDISCPILOT01","701","01-701-1034",77,"65-80",2,"WHITE",1,"F","Y","2014-07-01","2014-12-30","Xanomeline High Dose",81,"Xanomeline High Dose",81,"DIABP","Diastolic Blood Pressure (mmHg)",2,"2014-12-30",183,815,"AFTER LYING DOWN FOR 5 MINUTES","Week 26",26,67,60,7,11.6666666667,13,"WEEK 26",37,"Y",""],["CDISCPILOT01","701","01-701-1034",77,"65-80",2,"WHITE",1,"F","Y","2014-07-01","2014-12-30","Xanomeline High Dose",81,"Xanomeline High Dose",81,"DIABP","Diastolic Blood Pressure (mmHg)",2,"2014-12-30",183,815,"AFTER LYING DOWN FOR 5 MINUTES","End of Treatment",99,67,60,7,11.6666666667,13,"WEEK 26",37,"Y",""],["CDISCPILOT01","701","01-701-1034",77,"65-80",2,"WHITE",1,"F","Y","2014-07-01","2014-12-30","Xanomeline High Dose",81,"Xanomeline High Dose",81,"DIABP","Diastolic Blood Pressure (mmHg)",2,"2014-06-24",-7,816,"AFTER STANDING FOR 1 MINUTE","",null,73,75,-2,-2.66666666667,1,"SCREENING 1",2,"",""],["CDISCPILOT01","701","01-701-1034",77,"65-80",2,"WHITE",1,"F","Y","2014-07-01","2014-12-30","Xanomeline High Dose",81,"Xanomeline High Dose",81,"DIABP","Diastolic Blood Pressure (mmHg)",2,"2014-06-29",-2,816,"AFTER STANDING FOR 1 MINUTE","",null,81,75,6,8,2,"SCREENING 2",5,"",""],["CDISCPILOT01","701","01-701-1034",77,"65-80",2,"WHITE",1,"F","Y","2014-07-01","2014-12-30","Xanomeline High Dose",81,"Xanomeline High Dose",81,"DIABP","Diastolic Blood Pressure (mmHg)",2,"2014-07-01",1,816,"AFTER STANDING FOR 1 MINUTE","Baseline",0,75,75,0,0,3,"BASELINE",8,"Y","Y"],["CDISCPILOT01","701","01-701-1034",77,"65-80",2,"WHITE",1,"F","Y","2014-07-01","2014-12-30","Xanomeline High Dose",81,"Xanomeline High Dose",81,"DIABP","Diastolic Blood Pressure (mmHg)",2,"2014-07-15",15,816,"AFTER STANDING FOR 1 MINUTE","Week 2",2,101,75,26,34.6666666667,4,"WEEK 2",11,"Y",""],["CDISCPILOT01","701","01-701-1034",77,"65-80",2,"WHITE",1,"F","Y","2014-07-01","2014-12-30","Xanomeline High Dose",81,"Xanomeline High Dose",81,"DIABP","Diastolic Blood Pressure (mmHg)",2,"2014-07-29",29,816,"AFTER STANDING FOR 1 MINUTE","Week 4",4,69,75,-6,-8,5,"WEEK 4",14,"Y",""],["CDISCPILOT01","701","01-701-1034",77,"65-80",2,"WHITE",1,"F","Y","2014-07-01","2014-12-30","Xanomeline High Dose",81,"Xanomeline High Dose",81,"DIABP","Diastolic Blood Pressure (mmHg)",2,"2014-07-31",31,816,"AFTER STANDING FOR 1 MINUTE","",null,65,75,-10,-13.3333333333,6,"AMBUL ECG REMOVAL",17,"",""],["CDISCPILOT01","701","01-701-1034",77,"65-80",2,"WHITE",1,"F","Y","2014-07-01","2014-12-30","Xanomeline High Dose",81,"Xanomeline High Dose",81,"DIABP","Diastolic Blood Pressure (mmHg)",2,"2014-08-11",42,816,"AFTER STANDING FOR 1 MINUTE","Week 6",6,76,75,1,1.33333333333,7,"WEEK 6",20,"Y",""],["CDISCPILOT01","701","01-701-1034",77,"65-80",2,"WHITE",1,"F","Y","2014-07-01","2014-12-30","Xanomeline High Dose",81,"Xanomeline High Dose",81,"DIABP","Diastolic Blood Pressure (mmHg)",2,"2014-08-26",57,816,"AFTER STANDING FOR 1 MINUTE","Week 8",8,80,75,5,6.66666666667,8,"WEEK 8",23,"Y",""],["CDISCPILOT01","701","01-701-1034",77,"65-80",2,"WHITE",1,"F","Y","2014-07-01","2014-12-30","Xanomeline High Dose",81,"Xanomeline High Dose",81,"DIABP","Diastolic Blood Pressure (mmHg)",2,"2014-09-25",87,816,"AFTER STANDING FOR 1 MINUTE","Week 12",12,66,75,-9,-12,9,"WEEK 12",26,"Y",""],["CDISCPILOT01","701","01-701-1034",77,"65-80",2,"WHITE",1,"F","Y","2014-07-01","2014-12-30","Xanomeline High Dose",81,"Xanomeline High Dose",81,"DIABP","Diastolic Blood Pressure (mmHg)",2,"2014-10-21",113,816,"AFTER STANDING FOR 1 MINUTE","Week 16",16,77,75,2,2.66666666667,10,"WEEK 16",29,"Y",""],["CDISCPILOT01","701","01-701-1034",77,"65-80",2,"WHITE",1,"F","Y","2014-07-01","2014-12-30","Xanomeline High Dose",81,"Xanomeline High Dose",81,"DIABP","Diastolic Blood Pressure (mmHg)",2,"2014-11-18",141,816,"AFTER STANDING FOR 1 MINUTE","Week 20",20,77,75,2,2.66666666667,11,"WEEK 20",32,"Y",""],["CDISCPILOT01","701","01-701-1034",77,"65-80",2,"WHITE",1,"F","Y","2014-07-01","2014-12-30","Xanomeline High Dose",81,"Xanomeline High Dose",81,"DIABP","Diastolic Blood Pressure (mmHg)",2,"2014-12-17",170,816,"AFTER STANDING FOR 1 MINUTE","Week 24",24,97,75,22,29.3333333333,12,"WEEK 24",35,"Y",""],["CDISCPILOT01","701","01-701-1034",77,"65-80",2,"WHITE",1,"F","Y","2014-07-01","2014-12-30","Xanomeline High Dose",81,"Xanomeline High Dose",81,"DIABP","Diastolic Blood Pressure (mmHg)",2,"2014-12-30",183,816,"AFTER STANDING FOR 1 MINUTE","Week 26",26,93,75,18,24,13,"WEEK 26",38,"Y",""],["CDISCPILOT01","701","01-701-1034",77,"65-80",2,"WHITE",1,"F","Y","2014-07-01","2014-12-30","Xanomeline High Dose",81,"Xanomeline High Dose",81,"DIABP","Diastolic Blood Pressure (mmHg)",2,"2014-12-30",183,816,"AFTER STANDING FOR 1 MINUTE","End of Treatment",99,93,75,18,24,13,"WEEK 26",38,"Y",""],["CDISCPILOT01","701","01-701-1034",77,"65-80",2,"WHITE",1,"F","Y","2014-07-01","2014-12-30","Xanomeline High Dose",81,"Xanomeline High Dose",81,"DIABP","Diastolic Blood Pressure (mmHg)",2,"2014-06-24",-7,817,"AFTER STANDING FOR 3 MINUTES","",null,79,82,-3,-3.65853658537,1,"SCREENING 1",3,"",""],["CDISCPILOT01","701","01-701-1034",77,"65-80",2,"WHITE",1,"F","Y","2014-07-01","2014-12-30","Xanomeline High Dose",81,"Xanomeline High Dose",81,"DIABP","Diastolic Blood Pressure (mmHg)",2,"2014-06-29",-2,817,"AFTER STANDING FOR 3 MINUTES","",null,69,82,-13,-15.8536585366,2,"SCREENING 2",6,"",""],["CDISCPILOT01","701","01-701-1034",77,"65-80",2,"WHITE",1,"F","Y","2014-07-01","2014-12-30","Xanomeline High Dose",81,"Xanomeline High Dose",81,"DIABP","Diastolic Blood Pressure (mmHg)",2,"2014-07-01",1,817,"AFTER STANDING FOR 3 MINUTES","Baseline",0,82,82,0,0,3,"BASELINE",9,"Y","Y"],["CDISCPILOT01","701","01-701-1034",77,"65-80",2,"WHITE",1,"F","Y","2014-07-01","2014-12-30","Xanomeline High Dose",81,"Xanomeline High Dose",81,"DIABP","Diastolic Blood Pressure (mmHg)",2,"2014-07-15",15,817,"AFTER STANDING FOR 3 MINUTES","Week 2",2,84,82,2,2.43902439024,4,"WEEK 2",12,"Y",""],["CDISCPILOT01","701","01-701-1034",77,"65-80",2,"WHITE",1,"F","Y","2014-07-01","2014-12-30","Xanomeline High Dose",81,"Xanomeline High Dose",81,"DIABP","Diastolic Blood Pressure (mmHg)",2,"2014-07-29",29,817,"AFTER STANDING FOR 3 MINUTES","Week 4",4,71,82,-11,-13.4146341463,5,"WEEK 4",15,"Y",""],["CDISCPILOT01","701","01-701-1034",77,"65-80",2,"WHITE",1,"F","Y","2014-07-01","2014-12-30","Xanomeline High Dose",81,"Xanomeline High Dose",81,"DIABP","Diastolic Blood Pressure (mmHg)",2,"2014-07-31",31,817,"AFTER STANDING FOR 3 MINUTES","",null,61,82,-21,-25.6097560976,6,"AMBUL ECG REMOVAL",18,"",""],["CDISCPILOT01","701","01-701-1034",77,"65-80",2,"WHITE",1,"F","Y","2014-07-01","2014-12-30","Xanomeline High Dose",81,"Xanomeline High Dose",81,"DIABP","Diastolic Blood Pressure (mmHg)",2,"2014-08-11",42,817,"AFTER STANDING FOR 3 MINUTES","Week 6",6,80,82,-2,-2.43902439024,7,"WEEK 6",21,"Y",""],["CDISCPILOT01","701","01-701-1034",77,"65-80",2,"WHITE",1,"F","Y","2014-07-01","2014-12-30","Xanomeline High Dose",81,"Xanomeline High Dose",81,"DIABP","Diastolic Blood Pressure (mmHg)",2,"2014-08-26",57,817,"AFTER STANDING FOR 3 MINUTES","Week 8",8,76,82,-6,-7.31707317073,8,"WEEK 8",24,"Y",""],["CDISCPILOT01","701","01-701-1034",77,"65-80",2,"WHITE",1,"F","Y","2014-07-01","2014-12-30","Xanomeline High Dose",81,"Xanomeline High Dose",81,"DIABP","Diastolic Blood Pressure (mmHg)",2,"2014-09-25",87,817,"AFTER STANDING FOR 3 MINUTES","Week 12",12,63,82,-19,-23.1707317073,9,"WEEK 12",27,"Y",""],["CDISCPILOT01","701","01-701-1034",77,"65-80",2,"WHITE",1,"F","Y","2014-07-01","2014-12-30","Xanomeline High Dose",81,"Xanomeline High Dose",81,"DIABP","Diastolic Blood Pressure (mmHg)",2,"2014-10-21",113,817,"AFTER STANDING FOR 3 MINUTES","Week 16",16,72,82,-10,-12.1951219512,10,"WEEK 16",30,"Y",""],["CDISCPILOT01","701","01-701-1034",77,"65-80",2,"WHITE",1,"F","Y","2014-07-01","2014-12-30","Xanomeline High Dose",81,"Xanomeline High Dose",81,"DIABP","Diastolic Blood Pressure (mmHg)",2,"2014-11-18",141,817,"AFTER STANDING FOR 3 MINUTES","Week 20",20,72,82,-10,-12.1951219512,11,"WEEK 20",33,"Y",""],["CDISCPILOT01","701","01-701-1034",77,"65-80",2,"WHITE",1,"F","Y","2014-07-01","2014-12-30","Xanomeline High Dose",81,"Xanomeline High Dose",81,"DIABP","Diastolic Blood Pressure (mmHg)",2,"2014-12-17",170,817,"AFTER STANDING FOR 3 MINUTES","Week 24",24,98,82,16,19.512195122,12,"WEEK 24",36,"Y",""],["CDISCPILOT01","701","01-701-1034",77,"65-80",2,"WHITE",1,"F","Y","2014-07-01","2014-12-30","Xanomeline High Dose",81,"Xanomeline High Dose",81,"DIABP","Diastolic Blood Pressure (mmHg)",2,"2014-12-30",183,817,"AFTER STANDING FOR 3 MINUTES","Week 26",26,66,82,-16,-19.512195122,13,"WEEK 26",39,"Y",""],["CDISCPILOT01","701","01-701-1034",77,"65-80",2,"WHITE",1,"F","Y","2014-07-01","2014-12-30","Xanomeline High Dose",81,"Xanomeline High Dose",81,"DIABP","Diastolic Blood Pressure (mmHg)",2,"2014-12-30",183,817,"AFTER STANDING FOR 3 MINUTES","End of Treatment",99,66,82,-16,-19.512195122,13,"WEEK 26",39,"Y",""],["CDISCPILOT01","701","01-701-1034",77,"65-80",2,"WHITE",1,"F","Y","2014-07-01","2014-12-30","Xanomeline High Dose",81,"Xanomeline High Dose",81,"HEIGHT","Height (cm)",5,"2014-06-24",-7,null,"","",null,154.94,null,null,null,1,"SCREENING 1",40,"",""],["CDISCPILOT01","701","01-701-1034",77,"65-80",2,"WHITE",1,"F","Y","2014-07-01","2014-12-30","Xanomeline High Dose",81,"Xanomeline High Dose",81,"PULSE","Pulse Rate (BEATS/MIN)",3,"2014-06-24",-7,815,"AFTER LYING DOWN FOR 5 MINUTES","",null,69,76,-7,-9.21052631579,1,"SCREENING 1",41,"",""],["CDISCPILOT01","701","01-701-1034",77,"65-80",2,"WHITE",1,"F","Y","2014-07-01","2014-12-30","Xanomeline High Dose",81,"Xanomeline High Dose",81,"PULSE","Pulse Rate (BEATS/MIN)",3,"2014-06-29",-2,815,"AFTER LYING DOWN FOR 5 MINUTES","",null,75,76,-1,-1.31578947368,2,"SCREENING 2",44,"",""],["CDISCPILOT01","701","01-701-1034",77,"65-80",2,"WHITE",1,"F","Y","2014-07-01","2014-12-30","Xanomeline High Dose",81,"Xanomeline High Dose",81,"PULSE","Pulse Rate (BEATS/MIN)",3,"2014-07-01",1,815,"AFTER LYING DOWN FOR 5 MINUTES","Baseline",0,76,76,0,0,3,"BASELINE",47,"Y","Y"],["CDISCPILOT01","701","01-701-1034",77,"65-80",2,"WHITE",1,"F","Y","2014-07-01","2014-12-30","Xanomeline High Dose",81,"Xanomeline High Dose",81,"PULSE","Pulse Rate (BEATS/MIN)",3,"2014-07-15",15,815,"AFTER LYING DOWN FOR 5 MINUTES","Week 2",2,86,76,10,13.1578947368,4,"WEEK 2",50,"Y",""],["CDISCPILOT01","701","01-701-1034",77,"65-80",2,"WHITE",1,"F","Y","2014-07-01","2014-12-30","Xanomeline High Dose",81,"Xanomeline High Dose",81,"PULSE","Pulse Rate (BEATS/MIN)",3,"2014-07-29",29,815,"AFTER LYING DOWN FOR 5 MINUTES","Week 4",4,87,76,11,14.4736842105,5,"WEEK 4",53,"Y",""],["CDISCPILOT01","701","01-701-1034",77,"65-80",2,"WHITE",1,"F","Y","2014-07-01","2014-12-30","Xanomeline High Dose",81,"Xanomeline High Dose",81,"PULSE","Pulse Rate (BEATS/MIN)",3,"2014-07-31",31,815,"AFTER LYING DOWN FOR 5 MINUTES","",null,83,76,7,9.21052631579,6,"AMBUL ECG REMOVAL",56,"",""],["CDISCPILOT01","701","01-701-1034",77,"65-80",2,"WHITE",1,"F","Y","2014-07-01","2014-12-30","Xanomeline High Dose",81,"Xanomeline High Dose",81,"PULSE","Pulse Rate (BEATS/MIN)",3,"2014-08-11",42,815,"AFTER LYING DOWN FOR 5 MINUTES","Week 6",6,97,76,21,27.6315789474,7,"WEEK 6",59,"Y",""],["CDISCPILOT01","701","01-701-1034",77,"65-80",2,"WHITE",1,"F","Y","2014-07-01","2014-12-30","Xanomeline High Dose",81,"Xanomeline High Dose",81,"PULSE","Pulse Rate (BEATS/MIN)",3,"2014-08-26",57,815,"AFTER LYING DOWN FOR 5 MINUTES","Week 8",8,78,76,2,2.63157894737,8,"WEEK 8",62,"Y",""],["CDISCPILOT01","701","01-701-1034",77,"65-80",2,"WHITE",1,"F","Y","2014-07-01","2014-12-30","Xanomeline High Dose",81,"Xanomeline High Dose",81,"PULSE","Pulse Rate (BEATS/MIN)",3,"2014-09-25",87,815,"AFTER LYING DOWN FOR 5 MINUTES","Week 12",12,66,76,-10,-13.1578947368,9,"WEEK 12",65,"Y",""],["CDISCPILOT01","701","01-701-1034",77,"65-80",2,"WHITE",1,"F","Y","2014-07-01","2014-12-30","Xanomeline High Dose",81,"Xanomeline High Dose",81,"PULSE","Pulse Rate (BEATS/MIN)",3,"2014-10-21",113,815,"AFTER LYING DOWN FOR 5 MINUTES","Week 16",16,74,76,-2,-2.63157894737,10,"WEEK 16",68,"Y",""],["CDISCPILOT01","701","01-701-1034",77,"65-80",2,"WHITE",1,"F","Y","2014-07-01","2014-12-30","Xanomeline High Dose",81,"Xanomeline High Dose",81,"PULSE","Pulse Rate (BEATS/MIN)",3,"2014-11-18",141,815,"AFTER LYING DOWN FOR 5 MINUTES","Week 20",20,86,76,10,13.1578947368,11,"WEEK 20",71,"Y",""],["CDISCPILOT01","701","01-701-1034",77,"65-80",2,"WHITE",1,"F","Y","2014-07-01","2014-12-30","Xanomeline High Dose",81,"Xanomeline High Dose",81,"PULSE","Pulse Rate (BEATS/MIN)",3,"2014-12-17",170,815,"AFTER LYING DOWN FOR 5 MINUTES","Week 24",24,96,76,20,26.3157894737,12,"WEEK 24",74,"Y",""],["CDISCPILOT01","701","01-701-1034",77,"65-80",2,"WHITE",1,"F","Y","2014-07-01","2014-12-30","Xanomeline High Dose",81,"Xanomeline High Dose",81,"PULSE","Pulse Rate (BEATS/MIN)",3,"2014-12-30",183,815,"AFTER LYING DOWN FOR 5 MINUTES","Week 26",26,74,76,-2,-2.63157894737,13,"WEEK 26",77,"Y",""],["CDISCPILOT01","701","01-701-1034",77,"65-80",2,"WHITE",1,"F","Y","2014-07-01","2014-12-30","Xanomeline High Dose",81,"Xanomeline High Dose",81,"PULSE","Pulse Rate (BEATS/MIN)",3,"2014-12-30",183,815,"AFTER LYING DOWN FOR 5 MINUTES","End of Treatment",99,74,76,-2,-2.63157894737,13,"WEEK 26",77,"Y",""],["CDISCPILOT01","701","01-701-1034",77,"65-80",2,"WHITE",1,"F","Y","2014-07-01","2014-12-30","Xanomeline High Dose",81,"Xanomeline High Dose",81,"PULSE","Pulse Rate (BEATS/MIN)",3,"2014-06-24",-7,816,"AFTER STANDING FOR 1 MINUTE","",null,76,83,-7,-8.43373493976,1,"SCREENING 1",42,"",""],["CDISCPILOT01","701","01-701-1034",77,"65-80",2,"WHITE",1,"F","Y","2014-07-01","2014-12-30","Xanomeline High Dose",81,"Xanomeline High Dose",81,"PULSE","Pulse Rate (BEATS/MIN)",3,"2014-06-29",-2,816,"AFTER STANDING FOR 1 MINUTE","",null,79,83,-4,-4.81927710843,2,"SCREENING 2",45,"",""],["CDISCPILOT01","701","01-701-1034",77,"65-80",2,"WHITE",1,"F","Y","2014-07-01","2014-12-30","Xanomeline High Dose",81,"Xanomeline High Dose",81,"PULSE","Pulse Rate (BEATS/MIN)",3,"2014-07-01",1,816,"AFTER STANDING FOR 1 MINUTE","Baseline",0,83,83,0,0,3,"BASELINE",48,"Y","Y"],["CDISCPILOT01","701","01-701-1034",77,"65-80",2,"WHITE",1,"F","Y","2014-07-01","2014-12-30","Xanomeline High Dose",81,"Xanomeline High Dose",81,"PULSE","Pulse Rate (BEATS/MIN)",3,"2014-07-15",15,816,"AFTER STANDING FOR 1 MINUTE","Week 2",2,91,83,8,9.63855421687,4,"WEEK 2",51,"Y",""],["CDISCPILOT01","701","01-701-1034",77,"65-80",2,"WHITE",1,"F","Y","2014-07-01","2014-12-30","Xanomeline High Dose",81,"Xanomeline High Dose",81,"PULSE","Pulse Rate (BEATS/MIN)",3,"2014-07-29",29,816,"AFTER STANDING FOR 1 MINUTE","Week 4",4,91,83,8,9.63855421687,5,"WEEK 4",54,"Y",""],["CDISCPILOT01","701","01-701-1034",77,"65-80",2,"WHITE",1,"F","Y","2014-07-01","2014-12-30","Xanomeline High Dose",81,"Xanomeline High Dose",81,"PULSE","Pulse Rate (BEATS/MIN)",3,"2014-07-31",31,816,"AFTER STANDING FOR 1 MINUTE","",null,90,83,7,8.43373493976,6,"AMBUL ECG REMOVAL",57,"",""],["CDISCPILOT01","701","01-701-1034",77,"65-80",2,"WHITE",1,"F","Y","2014-07-01","2014-12-30","Xanomeline High Dose",81,"Xanomeline High Dose",81,"PULSE","Pulse Rate (BEATS/MIN)",3,"2014-08-11",42,816,"AFTER STANDING FOR 1 MINUTE","Week 6",6,93,83,10,12.0481927711,7,"WEEK 6",60,"Y",""],["CDISCPILOT01","701","01-701-1034",77,"65-80",2,"WHITE",1,"F","Y","2014-07-01","2014-12-30","Xanomeline High Dose",81,"Xanomeline High Dose",81,"PULSE","Pulse Rate (BEATS/MIN)",3,"2014-08-26",57,816,"AFTER STANDING FOR 1 MINUTE","Week 8",8,71,83,-12,-14.4578313253,8,"WEEK 8",63,"Y",""],["CDISCPILOT01","701","01-701-1034",77,"65-80",2,"WHITE",1,"F","Y","2014-07-01","2014-12-30","Xanomeline High Dose",81,"Xanomeline High Dose",81,"PULSE","Pulse Rate (BEATS/MIN)",3,"2014-09-25",87,816,"AFTER STANDING FOR 1 MINUTE","Week 12",12,70,83,-13,-15.6626506024,9,"WEEK 12",66,"Y",""],["CDISCPILOT01","701","01-701-1034",77,"65-80",2,"WHITE",1,"F","Y","2014-07-01","2014-12-30","Xanomeline High Dose",81,"Xanomeline High Dose",81,"PULSE","Pulse Rate (BEATS/MIN)",3,"2014-10-21",113,816,"AFTER STANDING FOR 1 MINUTE","Week 16",16,79,83,-4,-4.81927710843,10,"WEEK 16",69,"Y",""],["CDISCPILOT01","701","01-701-1034",77,"65-80",2,"WHITE",1,"F","Y","2014-07-01","2014-12-30","Xanomeline High Dose",81,"Xanomeline High Dose",81,"PULSE","Pulse Rate (BEATS/MIN)",3,"2014-11-18",141,816,"AFTER STANDING FOR 1 MINUTE","Week 20",20,84,83,1,1.20481927711,11,"WEEK 20",72,"Y",""],["CDISCPILOT01","701","01-701-1034",77,"65-80",2,"WHITE",1,"F","Y","2014-07-01","2014-12-30","Xanomeline High Dose",81,"Xanomeline High Dose",81,"PULSE","Pulse Rate (BEATS/MIN)",3,"2014-12-17",170,816,"AFTER STANDING FOR 1 MINUTE","Week 24",24,97,83,14,16.8674698795,12,"WEEK 24",75,"Y",""],["CDISCPILOT01","701","01-701-1034",77,"65-80",2,"WHITE",1,"F","Y","2014-07-01","2014-12-30","Xanomeline High Dose",81,"Xanomeline High Dose",81,"PULSE","Pulse Rate (BEATS/MIN)",3,"2014-12-30",183,816,"AFTER STANDING FOR 1 MINUTE","Week 26",26,86,83,3,3.61445783133,13,"WEEK 26",78,"Y",""],["CDISCPILOT01","701","01-701-1034",77,"65-80",2,"WHITE",1,"F","Y","2014-07-01","2014-12-30","Xanomeline High Dose",81,"Xanomeline High Dose",81,"PULSE","Pulse Rate (BEATS/MIN)",3,"2014-12-30",183,816,"AFTER STANDING FOR 1 MINUTE","End of Treatment",99,86,83,3,3.61445783133,13,"WEEK 26",78,"Y",""],["CDISCPILOT01","701","01-701-1034",77,"65-80",2,"WHITE",1,"F","Y","2014-07-01","2014-12-30","Xanomeline High Dose",81,"Xanomeline High Dose",81,"PULSE","Pulse Rate (BEATS/MIN)",3,"2014-06-24",-7,817,"AFTER STANDING FOR 3 MINUTES","",null,74,80,-6,-7.5,1,"SCREENING 1",43,"",""],["CDISCPILOT01","701","01-701-1034",77,"65-80",2,"WHITE",1,"F","Y","2014-07-01","2014-12-30","Xanomeline High Dose",81,"Xanomeline High Dose",81,"PULSE","Pulse Rate (BEATS/MIN)",3,"2014-06-29",-2,817,"AFTER STANDING FOR 3 MINUTES","",null,79,80,-1,-1.25,2,"SCREENING 2",46,"",""],["CDISCPILOT01","701","01-701-1034",77,"65-80",2,"WHITE",1,"F","Y","2014-07-01","2014-12-30","Xanomeline High Dose",81,"Xanomeline High Dose",81,"PULSE","Pulse Rate (BEATS/MIN)",3,"2014-07-01",1,817,"AFTER STANDING FOR 3 MINUTES","Baseline",0,80,80,0,0,3,"BASELINE",49,"Y","Y"],["CDISCPILOT01","701","01-701-1034",77,"65-80",2,"WHITE",1,"F","Y","2014-07-01","2014-12-30","Xanomeline High Dose",81,"Xanomeline High Dose",81,"PULSE","Pulse Rate (BEATS/MIN)",3,"2014-07-15",15,817,"AFTER STANDING FOR 3 MINUTES","Week 2",2,86,80,6,7.5,4,"WEEK 2",52,"Y",""],["CDISCPILOT01","701","01-701-1034",77,"65-80",2,"WHITE",1,"F","Y","2014-07-01","2014-12-30","Xanomeline High Dose",81,"Xanomeline High Dose",81,"PULSE","Pulse Rate (BEATS/MIN)",3,"2014-07-29",29,817,"AFTER STANDING FOR 3 MINUTES","Week 4",4,88,80,8,10,5,"WEEK 4",55,"Y",""],["CDISCPILOT01","701","01-701-1034",77,"65-80",2,"WHITE",1,"F","Y","2014-07-01","2014-12-30","Xanomeline High Dose",81,"Xanomeline High Dose",81,"PULSE","Pulse Rate (BEATS/MIN)",3,"2014-07-31",31,817,"AFTER STANDING FOR 3 MINUTES","",null,86,80,6,7.5,6,"AMBUL ECG REMOVAL",58,"",""],["CDISCPILOT01","701","01-701-1034",77,"65-80",2,"WHITE",1,"F","Y","2014-07-01","2014-12-30","Xanomeline High Dose",81,"Xanomeline High Dose",81,"PULSE","Pulse Rate (BEATS/MIN)",3,"2014-08-11",42,817,"AFTER STANDING FOR 3 MINUTES","Week 6",6,94,80,14,17.5,7,"WEEK 6",61,"Y",""],["CDISCPILOT01","701","01-701-1034",77,"65-80",2,"WHITE",1,"F","Y","2014-07-01","2014-12-30","Xanomeline High Dose",81,"Xanomeline High Dose",81,"PULSE","Pulse Rate (BEATS/MIN)",3,"2014-08-26",57,817,"AFTER STANDING FOR 3 MINUTES","Week 8",8,71,80,-9,-11.25,8,"WEEK 8",64,"Y",""],["CDISCPILOT01","701","01-701-1034",77,"65-80",2,"WHITE",1,"F","Y","2014-07-01","2014-12-30","Xanomeline High Dose",81,"Xanomeline High Dose",81,"PULSE","Pulse Rate (BEATS/MIN)",3,"2014-09-25",87,817,"AFTER STANDING FOR 3 MINUTES","Week 12",12,69,80,-11,-13.75,9,"WEEK 12",67,"Y",""],["CDISCPILOT01","701","01-701-1034",77,"65-80",2,"WHITE",1,"F","Y","2014-07-01","2014-12-30","Xanomeline High Dose",81,"Xanomeline High Dose",81,"PULSE","Pulse Rate (BEATS/MIN)",3,"2014-10-21",113,817,"AFTER STANDING FOR 3 MINUTES","Week 16",16,78,80,-2,-2.5,10,"WEEK 16",70,"Y",""],["CDISCPILOT01","701","01-701-1034",77,"65-80",2,"WHITE",1,"F","Y","2014-07-01","2014-12-30","Xanomeline High Dose",81,"Xanomeline High Dose",81,"PULSE","Pulse Rate (BEATS/MIN)",3,"2014-11-18",141,817,"AFTER STANDING FOR 3 MINUTES","Week 20",20,80,80,0,0,11,"WEEK 20",73,"Y",""],["CDISCPILOT01","701","01-701-1034",77,"65-80",2,"WHITE",1,"F","Y","2014-07-01","2014-12-30","Xanomeline High Dose",81,"Xanomeline High Dose",81,"PULSE","Pulse Rate (BEATS/MIN)",3,"2014-12-17",170,817,"AFTER STANDING FOR 3 MINUTES","Week 24",24,91,80,11,13.75,12,"WEEK 24",76,"Y",""],["CDISCPILOT01","701","01-701-1034",77,"65-80",2,"WHITE",1,"F","Y","2014-07-01","2014-12-30","Xanomeline High Dose",81,"Xanomeline High Dose",81,"PULSE","Pulse Rate (BEATS/MIN)",3,"2014-12-30",183,817,"AFTER STANDING FOR 3 MINUTES","Week 26",26,76,80,-4,-5,13,"WEEK 26",79,"Y",""],["CDISCPILOT01","701","01-701-1034",77,"65-80",2,"WHITE",1,"F","Y","2014-07-01","2014-12-30","Xanomeline High Dose",81,"Xanomeline High Dose",81,"PULSE","Pulse Rate (BEATS/MIN)",3,"2014-12-30",183,817,"AFTER STANDING FOR 3 MINUTES","End of Treatment",99,76,80,-4,-5,13,"WEEK 26",79,"Y",""],["CDISCPILOT01","701","01-701-1034",77,"65-80",2,"WHITE",1,"F","Y","2014-07-01","2014-12-30","Xanomeline High Dose",81,"Xanomeline High Dose",81,"SYSBP","Systolic Blood Pressure (mmHg)",1,"2014-06-24",-7,815,"AFTER LYING DOWN FOR 5 MINUTES","",null,160,163,-3,-1.84049079755,1,"SCREENING 1",80,"",""],["CDISCPILOT01","701","01-701-1034",77,"65-80",2,"WHITE",1,"F","Y","2014-07-01","2014-12-30","Xanomeline High Dose",81,"Xanomeline High Dose",81,"SYSBP","Systolic Blood Pressure (mmHg)",1,"2014-06-29",-2,815,"AFTER LYING DOWN FOR 5 MINUTES","",null,158,163,-5,-3.06748466258,2,"SCREENING 2",83,"",""],["CDISCPILOT01","701","01-701-1034",77,"65-80",2,"WHITE",1,"F","Y","2014-07-01","2014-12-30","Xanomeline High Dose",81,"Xanomeline High Dose",81,"SYSBP","Systolic Blood Pressure (mmHg)",1,"2014-07-01",1,815,"AFTER LYING DOWN FOR 5 MINUTES","Baseline",0,163,163,0,0,3,"BASELINE",86,"Y","Y"],["CDISCPILOT01","701","01-701-1034",77,"65-80",2,"WHITE",1,"F","Y","2014-07-01","2014-12-30","Xanomeline High Dose",81,"Xanomeline High Dose",81,"SYSBP","Systolic Blood Pressure (mmHg)",1,"2014-07-15",15,815,"AFTER LYING DOWN FOR 5 MINUTES","Week 2",2,183,163,20,12.2699386503,4,"WEEK 2",89,"Y",""],["CDISCPILOT01","701","01-701-1034",77,"65-80",2,"WHITE",1,"F","Y","2014-07-01","2014-12-30","Xanomeline High Dose",81,"Xanomeline High Dose",81,"SYSBP","Systolic Blood Pressure (mmHg)",1,"2014-07-29",29,815,"AFTER LYING DOWN FOR 5 MINUTES","Week 4",4,165,163,2,1.22699386503,5,"WEEK 4",92,"Y",""],["CDISCPILOT01","701","01-701-1034",77,"65-80",2,"WHITE",1,"F","Y","2014-07-01","2014-12-30","Xanomeline High Dose",81,"Xanomeline High Dose",81,"SYSBP","Systolic Blood Pressure (mmHg)",1,"2014-07-31",31,815,"AFTER LYING DOWN FOR 5 MINUTES","",null,140,163,-23,-14.1104294479,6,"AMBUL ECG REMOVAL",95,"",""],["CDISCPILOT01","701","01-701-1034",77,"65-80",2,"WHITE",1,"F","Y","2014-07-01","2014-12-30","Xanomeline High Dose",81,"Xanomeline High Dose",81,"SYSBP","Systolic Blood Pressure (mmHg)",1,"2014-08-11",42,815,"AFTER LYING DOWN FOR 5 MINUTES","Week 6",6,145,163,-18,-11.0429447853,7,"WEEK 6",98,"Y",""],["CDISCPILOT01","701","01-701-1034",77,"65-80",2,"WHITE",1,"F","Y","2014-07-01","2014-12-30","Xanomeline High Dose",81,"Xanomeline High Dose",81,"SYSBP","Systolic Blood Pressure (mmHg)",1,"2014-08-26",57,815,"AFTER LYING DOWN FOR 5 MINUTES","Week 8",8,188,163,25,15.3374233129,8,"WEEK 8",101,"Y",""],["CDISCPILOT01","701","01-701-1034",77,"65-80",2,"WHITE",1,"F","Y","2014-07-01","2014-12-30","Xanomeline High Dose",81,"Xanomeline High Dose",81,"SYSBP","Systolic Blood Pressure (mmHg)",1,"2014-09-25",87,815,"AFTER LYING DOWN FOR 5 MINUTES","Week 12",12,145,163,-18,-11.0429447853,9,"WEEK 12",104,"Y",""],["CDISCPILOT01","701","01-701-1034",77,"65-80",2,"WHITE",1,"F","Y","2014-07-01","2014-12-30","Xanomeline High Dose",81,"Xanomeline High Dose",81,"SYSBP","Systolic Blood Pressure (mmHg)",1,"2014-10-21",113,815,"AFTER LYING DOWN FOR 5 MINUTES","Week 16",16,154,163,-9,-5.52147239264,10,"WEEK 16",107,"Y",""],["CDISCPILOT01","701","01-701-1034",77,"65-80",2,"WHITE",1,"F","Y","2014-07-01","2014-12-30","Xanomeline High Dose",81,"Xanomeline High Dose",81,"SYSBP","Systolic Blood Pressure (mmHg)",1,"2014-11-18",141,815,"AFTER LYING DOWN FOR 5 MINUTES","Week 20",20,167,163,4,2.45398773006,11,"WEEK 20",110,"Y",""],["CDISCPILOT01","701","01-701-1034",77,"65-80",2,"WHITE",1,"F","Y","2014-07-01","2014-12-30","Xanomeline High Dose",81,"Xanomeline High Dose",81,"SYSBP","Systolic Blood Pressure (mmHg)",1,"2014-12-17",170,815,"AFTER LYING DOWN FOR 5 MINUTES","Week 24",24,178,163,15,9.20245398773,12,"WEEK 24",113,"Y",""],["CDISCPILOT01","701","01-701-1034",77,"65-80",2,"WHITE",1,"F","Y","2014-07-01","2014-12-30","Xanomeline High Dose",81,"Xanomeline High Dose",81,"SYSBP","Systolic Blood Pressure (mmHg)",1,"2014-12-30",183,815,"AFTER LYING DOWN FOR 5 MINUTES","Week 26",26,154,163,-9,-5.52147239264,13,"WEEK 26",116,"Y",""],["CDISCPILOT01","701","01-701-1034",77,"65-80",2,"WHITE",1,"F","Y","2014-07-01","2014-12-30","Xanomeline High Dose",81,"Xanomeline High Dose",81,"SYSBP","Systolic Blood Pressure (mmHg)",1,"2014-12-30",183,815,"AFTER LYING DOWN FOR 5 MINUTES","End of Treatment",99,154,163,-9,-5.52147239264,13,"WEEK 26",116,"Y",""],["CDISCPILOT01","701","01-701-1034",77,"65-80",2,"WHITE",1,"F","Y","2014-07-01","2014-12-30","Xanomeline High Dose",81,"Xanomeline High Dose",81,"SYSBP","Systolic Blood Pressure (mmHg)",1,"2014-06-24",-7,816,"AFTER STANDING FOR 1 MINUTE","",null,183,177,6,3.38983050847,1,"SCREENING 1",81,"",""],["CDISCPILOT01","701","01-701-1034",77,"65-80",2,"WHITE",1,"F","Y","2014-07-01","2014-12-30","Xanomeline High Dose",81,"Xanomeline High Dose",81,"SYSBP","Systolic Blood Pressure (mmHg)",1,"2014-06-29",-2,816,"AFTER STANDING FOR 1 MINUTE","",null,155,177,-22,-12.4293785311,2,"SCREENING 2",84,"",""],["CDISCPILOT01","701","01-701-1034",77,"65-80",2,"WHITE",1,"F","Y","2014-07-01","2014-12-30","Xanomeline High Dose",81,"Xanomeline High Dose",81,"SYSBP","Systolic Blood Pressure (mmHg)",1,"2014-07-01",1,816,"AFTER STANDING FOR 1 MINUTE","Baseline",0,177,177,0,0,3,"BASELINE",87,"Y","Y"],["CDISCPILOT01","701","01-701-1034",77,"65-80",2,"WHITE",1,"F","Y","2014-07-01","2014-12-30","Xanomeline High Dose",81,"Xanomeline High Dose",81,"SYSBP","Systolic Blood Pressure (mmHg)",1,"2014-07-15",15,816,"AFTER STANDING FOR 1 MINUTE","Week 2",2,191,177,14,7.90960451977,4,"WEEK 2",90,"Y",""],["CDISCPILOT01","701","01-701-1034",77,"65-80",2,"WHITE",1,"F","Y","2014-07-01","2014-12-30","Xanomeline High Dose",81,"Xanomeline High Dose",81,"SYSBP","Systolic Blood Pressure (mmHg)",1,"2014-07-29",29,816,"AFTER STANDING FOR 1 MINUTE","Week 4",4,170,177,-7,-3.95480225989,5,"WEEK 4",93,"Y",""],["CDISCPILOT01","701","01-701-1034",77,"65-80",2,"WHITE",1,"F","Y","2014-07-01","2014-12-30","Xanomeline High Dose",81,"Xanomeline High Dose",81,"SYSBP","Systolic Blood Pressure (mmHg)",1,"2014-07-31",31,816,"AFTER STANDING FOR 1 MINUTE","",null,166,177,-11,-6.21468926554,6,"AMBUL ECG REMOVAL",96,"",""],["CDISCPILOT01","701","01-701-1034",77,"65-80",2,"WHITE",1,"F","Y","2014-07-01","2014-12-30","Xanomeline High Dose",81,"Xanomeline High Dose",81,"SYSBP","Systolic Blood Pressure (mmHg)",1,"2014-08-11",42,816,"AFTER STANDING FOR 1 MINUTE","Week 6",6,174,177,-3,-1.69491525424,7,"WEEK 6",99,"Y",""],["CDISCPILOT01","701","01-701-1034",77,"65-80",2,"WHITE",1,"F","Y","2014-07-01","2014-12-30","Xanomeline High Dose",81,"Xanomeline High Dose",81,"SYSBP","Systolic Blood Pressure (mmHg)",1,"2014-08-26",57,816,"AFTER STANDING FOR 1 MINUTE","Week 8",8,197,177,20,11.2994350282,8,"WEEK 8",102,"Y",""],["CDISCPILOT01","701","01-701-1034",77,"65-80",2,"WHITE",1,"F","Y","2014-07-01","2014-12-30","Xanomeline High Dose",81,"Xanomeline High Dose",81,"SYSBP","Systolic Blood Pressure (mmHg)",1,"2014-09-25",87,816,"AFTER STANDING FOR 1 MINUTE","Week 12",12,150,177,-27,-15.2542372881,9,"WEEK 12",105,"Y",""],["CDISCPILOT01","701","01-701-1034",77,"65-80",2,"WHITE",1,"F","Y","2014-07-01","2014-12-30","Xanomeline High Dose",81,"Xanomeline High Dose",81,"SYSBP","Systolic Blood Pressure (mmHg)",1,"2014-10-21",113,816,"AFTER STANDING FOR 1 MINUTE","Week 16",16,183,177,6,3.38983050847,10,"WEEK 16",108,"Y",""],["CDISCPILOT01","701","01-701-1034",77,"65-80",2,"WHITE",1,"F","Y","2014-07-01","2014-12-30","Xanomeline High Dose",81,"Xanomeline High Dose",81,"SYSBP","Systolic Blood Pressure (mmHg)",1,"2014-11-18",141,816,"AFTER STANDING FOR 1 MINUTE","Week 20",20,181,177,4,2.25988700565,11,"WEEK 20",111,"Y",""],["CDISCPILOT01","701","01-701-1034",77,"65-80",2,"WHITE",1,"F","Y","2014-07-01","2014-12-30","Xanomeline High Dose",81,"Xanomeline High Dose",81,"SYSBP","Systolic Blood Pressure (mmHg)",1,"2014-12-17",170,816,"AFTER STANDING FOR 1 MINUTE","Week 24",24,198,177,21,11.8644067797,12,"WEEK 24",114,"Y",""],["CDISCPILOT01","701","01-701-1034",77,"65-80",2,"WHITE",1,"F","Y","2014-07-01","2014-12-30","Xanomeline High Dose",81,"Xanomeline High Dose",81,"SYSBP","Systolic Blood Pressure (mmHg)",1,"2014-12-30",183,816,"AFTER STANDING FOR 1 MINUTE","Week 26",26,150,177,-27,-15.2542372881,13,"WEEK 26",117,"Y",""],["CDISCPILOT01","701","01-701-1034",77,"65-80",2,"WHITE",1,"F","Y","2014-07-01","2014-12-30","Xanomeline High Dose",81,"Xanomeline High Dose",81,"SYSBP","Systolic Blood Pressure (mmHg)",1,"2014-12-30",183,816,"AFTER STANDING FOR 1 MINUTE","End of Treatment",99,150,177,-27,-15.2542372881,13,"WEEK 26",117,"Y",""],["CDISCPILOT01","701","01-701-1034",77,"65-80",2,"WHITE",1,"F","Y","2014-07-01","2014-12-30","Xanomeline High Dose",81,"Xanomeline High Dose",81,"SYSBP","Systolic Blood Pressure (mmHg)",1,"2014-06-24",-7,817,"AFTER STANDING FOR 3 MINUTES","",null,151,168,-17,-10.119047619,1,"SCREENING 1",82,"",""],["CDISCPILOT01","701","01-701-1034",77,"65-80",2,"WHITE",1,"F","Y","2014-07-01","2014-12-30","Xanomeline High Dose",81,"Xanomeline High Dose",81,"SYSBP","Systolic Blood Pressure (mmHg)",1,"2014-06-29",-2,817,"AFTER STANDING FOR 3 MINUTES","",null,155,168,-13,-7.7380952381,2,"SCREENING 2",85,"",""],["CDISCPILOT01","701","01-701-1034",77,"65-80",2,"WHITE",1,"F","Y","2014-07-01","2014-12-30","Xanomeline High Dose",81,"Xanomeline High Dose",81,"SYSBP","Systolic Blood Pressure (mmHg)",1,"2014-07-01",1,817,"AFTER STANDING FOR 3 MINUTES","Baseline",0,168,168,0,0,3,"BASELINE",88,"Y","Y"],["CDISCPILOT01","701","01-701-1034",77,"65-80",2,"WHITE",1,"F","Y","2014-07-01","2014-12-30","Xanomeline High Dose",81,"Xanomeline High Dose",81,"SYSBP","Systolic Blood Pressure (mmHg)",1,"2014-07-15",15,817,"AFTER STANDING FOR 3 MINUTES","Week 2",2,161,168,-7,-4.16666666667,4,"WEEK 2",91,"Y",""],["CDISCPILOT01","701","01-701-1034",77,"65-80",2,"WHITE",1,"F","Y","2014-07-01","2014-12-30","Xanomeline High Dose",81,"Xanomeline High Dose",81,"SYSBP","Systolic Blood Pressure (mmHg)",1,"2014-07-29",29,817,"AFTER STANDING FOR 3 MINUTES","Week 4",4,169,168,1,0.595238095238,5,"WEEK 4",94,"Y",""],["CDISCPILOT01","701","01-701-1034",77,"65-80",2,"WHITE",1,"F","Y","2014-07-01","2014-12-30","Xanomeline High Dose",81,"Xanomeline High Dose",81,"SYSBP","Systolic Blood Pressure (mmHg)",1,"2014-07-31",31,817,"AFTER STANDING FOR 3 MINUTES","",null,159,168,-9,-5.35714285714,6,"AMBUL ECG REMOVAL",97,"",""],["CDISCPILOT01","701","01-701-1034",77,"65-80",2,"WHITE",1,"F","Y","2014-07-01","2014-12-30","Xanomeline High Dose",81,"Xanomeline High Dose",81,"SYSBP","Systolic Blood Pressure (mmHg)",1,"2014-08-11",42,817,"AFTER STANDING FOR 3 MINUTES","Week 6",6,170,168,2,1.19047619048,7,"WEEK 6",100,"Y",""],["CDISCPILOT01","701","01-701-1034",77,"65-80",2,"WHITE",1,"F","Y","2014-07-01","2014-12-30","Xanomeline High Dose",81,"Xanomeline High Dose",81,"SYSBP","Systolic Blood Pressure (mmHg)",1,"2014-08-26",57,817,"AFTER STANDING FOR 3 MINUTES","Week 8",8,198,168,30,17.8571428571,8,"WEEK 8",103,"Y",""],["CDISCPILOT01","701","01-701-1034",77,"65-80",2,"WHITE",1,"F","Y","2014-07-01","2014-12-30","Xanomeline High Dose",81,"Xanomeline High Dose",81,"SYSBP","Systolic Blood Pressure (mmHg)",1,"2014-09-25",87,817,"AFTER STANDING FOR 3 MINUTES","Week 12",12,177,168,9,5.35714285714,9,"WEEK 12",106,"Y",""],["CDISCPILOT01","701","01-701-1034",77,"65-80",2,"WHITE",1,"F","Y","2014-07-01","2014-12-30","Xanomeline High Dose",81,"Xanomeline High Dose",81,"SYSBP","Systolic Blood Pressure (mmHg)",1,"2014-10-21",113,817,"AFTER STANDING FOR 3 MINUTES","Week 16",16,186,168,18,10.7142857143,10,"WEEK 16",109,"Y",""],["CDISCPILOT01","701","01-701-1034",77,"65-80",2,"WHITE",1,"F","Y","2014-07-01","2014-12-30","Xanomeline High Dose",81,"Xanomeline High Dose",81,"SYSBP","Systolic Blood Pressure (mmHg)",1,"2014-11-18",141,817,"AFTER STANDING FOR 3 MINUTES","Week 20",20,185,168,17,10.119047619,11,"WEEK 20",112,"Y",""],["CDISCPILOT01","701","01-701-1034",77,"65-80",2,"WHITE",1,"F","Y","2014-07-01","2014-12-30","Xanomeline High Dose",81,"Xanomeline High Dose",81,"SYSBP","Systolic Blood Pressure (mmHg)",1,"2014-12-17",170,817,"AFTER STANDING FOR 3 MINUTES","Week 24",24,164,168,-4,-2.38095238095,12,"WEEK 24",115,"Y",""],["CDISCPILOT01","701","01-701-1034",77,"65-80",2,"WHITE",1,"F","Y","2014-07-01","2014-12-30","Xanomeline High Dose",81,"Xanomeline High Dose",81,"SYSBP","Systolic Blood Pressure (mmHg)",1,"2014-12-30",183,817,"AFTER STANDING FOR 3 MINUTES","Week 26",26,179,168,11,6.54761904762,13,"WEEK 26",118,"Y",""],["CDISCPILOT01","701","01-701-1034",77,"65-80",2,"WHITE",1,"F","Y","2014-07-01","2014-12-30","Xanomeline High Dose",81,"Xanomeline High Dose",81,"SYSBP","Systolic Blood Pressure (mmHg)",1,"2014-12-30",183,817,"AFTER STANDING FOR 3 MINUTES","End of Treatment",99,179,168,11,6.54761904762,13,"WEEK 26",118,"Y",""],["CDISCPILOT01","701","01-701-1034",77,"65-80",2,"WHITE",1,"F","Y","2014-07-01","2014-12-30","Xanomeline High Dose",81,"Xanomeline High Dose",81,"TEMP","Temperature (C)",6,"2014-06-24",-7,null,"","",null,36.22,36.94,-0.72,-1.94910665945,1,"SCREENING 1",119,"",""],["CDISCPILOT01","701","01-701-1034",77,"65-80",2,"WHITE",1,"F","Y","2014-07-01","2014-12-30","Xanomeline High Dose",81,"Xanomeline High Dose",81,"TEMP","Temperature (C)",6,"2014-06-29",-2,null,"","",null,36.5,36.94,-0.44,-1.19112073633,2,"SCREENING 2",120,"",""],["CDISCPILOT01","701","01-701-1034",77,"65-80",2,"WHITE",1,"F","Y","2014-07-01","2014-12-30","Xanomeline High Dose",81,"Xanomeline High Dose",81,"TEMP","Temperature (C)",6,"2014-07-01",1,null,"","Baseline",0,36.94,36.94,0,0,3,"BASELINE",121,"Y","Y"],["CDISCPILOT01","701","01-701-1034",77,"65-80",2,"WHITE",1,"F","Y","2014-07-01","2014-12-30","Xanomeline High Dose",81,"Xanomeline High Dose",81,"TEMP","Temperature (C)",6,"2014-07-15",15,null,"","Week 2",2,36.56,36.94,-0.38,-1.02869518138,4,"WEEK 2",122,"Y",""],["CDISCPILOT01","701","01-701-1034",77,"65-80",2,"WHITE",1,"F","Y","2014-07-01","2014-12-30","Xanomeline High Dose",81,"Xanomeline High Dose",81,"TEMP","Temperature (C)",6,"2014-07-29",29,null,"","Week 4",4,36.61,36.94,-0.33,-0.893340552247,5,"WEEK 4",123,"Y",""],["CDISCPILOT01","701","01-701-1034",77,"65-80",2,"WHITE",1,"F","Y","2014-07-01","2014-12-30","Xanomeline High Dose",81,"Xanomeline High Dose",81,"TEMP","Temperature (C)",6,"2014-07-31",31,null,"","",null,36.83,36.94,-0.11,-0.297780184082,6,"AMBUL ECG REMOVAL",124,"",""],["CDISCPILOT01","701","01-701-1034",77,"65-80",2,"WHITE",1,"F","Y","2014-07-01","2014-12-30","Xanomeline High Dose",81,"Xanomeline High Dose",81,"TEMP","Temperature (C)",6,"2014-08-11",42,null,"","Week 6",6,37.06,36.94,0.12,0.324851109908,7,"WEEK 6",125,"Y",""],["CDISCPILOT01","701","01-701-1034",77,"65-80",2,"WHITE",1,"F","Y","2014-07-01","2014-12-30","Xanomeline High Dose",81,"Xanomeline High Dose",81,"TEMP","Temperature (C)",6,"2014-08-26",57,null,"","Week 8",8,36.72,36.94,-0.22,-0.595560368165,8,"WEEK 8",126,"Y",""],["CDISCPILOT01","701","01-701-1034",77,"65-80",2,"WHITE",1,"F","Y","2014-07-01","2014-12-30","Xanomeline High Dose",81,"Xanomeline High Dose",81,"TEMP","Temperature (C)",6,"2014-09-25",87,null,"","Week 12",12,37.06,36.94,0.12,0.324851109908,9,"WEEK 12",127,"Y",""],["CDISCPILOT01","701","01-701-1034",77,"65-80",2,"WHITE",1,"F","Y","2014-07-01","2014-12-30","Xanomeline High Dose",81,"Xanomeline High Dose",81,"TEMP","Temperature (C)",6,"2014-10-21",113,null,"","Week 16",16,36.94,36.94,0,0,10,"WEEK 16",128,"Y",""],["CDISCPILOT01","701","01-701-1034",77,"65-80",2,"WHITE",1,"F","Y","2014-07-01","2014-12-30","Xanomeline High Dose",81,"Xanomeline High Dose",81,"TEMP","Temperature (C)",6,"2014-11-18",141,null,"","Week 20",20,36.89,36.94,-0.05,-0.135354629128,11,"WEEK 20",129,"Y",""],["CDISCPILOT01","701","01-701-1034",77,"65-80",2,"WHITE",1,"F","Y","2014-07-01","2014-12-30","Xanomeline High Dose",81,"Xanomeline High Dose",81,"TEMP","Temperature (C)",6,"2014-12-17",170,null,"","Week 24",24,36.72,36.94,-0.22,-0.595560368165,12,"WEEK 24",130,"Y",""],["CDISCPILOT01","701","01-701-1034",77,"65-80",2,"WHITE",1,"F","Y","2014-07-01","2014-12-30","Xanomeline High Dose",81,"Xanomeline High Dose",81,"TEMP","Temperature (C)",6,"2014-12-30",183,null,"","Week 26",26,36.56,36.94,-0.38,-1.02869518138,13,"WEEK 26",131,"Y",""],["CDISCPILOT01","701","01-701-1034",77,"65-80",2,"WHITE",1,"F","Y","2014-07-01","2014-12-30","Xanomeline High Dose",81,"Xanomeline High Dose",81,"TEMP","Temperature (C)",6,"2014-12-30",183,null,"","End of Treatment",99,36.56,36.94,-0.38,-1.02869518138,13,"WEEK 26",131,"Y",""],["CDISCPILOT01","701","01-701-1034",77,"65-80",2,"WHITE",1,"F","Y","2014-07-01","2014-12-30","Xanomeline High Dose",81,"Xanomeline High Dose",81,"WEIGHT","Weight (kg)",4,"2014-06-24",-7,null,"","",null,63.5,62.6,0.9,1.43769968051,1,"SCREENING 1",132,"",""],["CDISCPILOT01","701","01-701-1034",77,"65-80",2,"WHITE",1,"F","Y","2014-07-01","2014-12-30","Xanomeline High Dose",81,"Xanomeline High Dose",81,"WEIGHT","Weight (kg)",4,"2014-07-01",1,null,"","Baseline",0,62.6,62.6,0,0,3,"BASELINE",133,"Y","Y"],["CDISCPILOT01","701","01-701-1034",77,"65-80",2,"WHITE",1,"F","Y","2014-07-01","2014-12-30","Xanomeline High Dose",81,"Xanomeline High Dose",81,"WEIGHT","Weight (kg)",4,"2014-07-15",15,null,"","Week 2",2,62.6,62.6,0,0,4,"WEEK 2",134,"Y",""],["CDISCPILOT01","701","01-701-1034",77,"65-80",2,"WHITE",1,"F","Y","2014-07-01","2014-12-30","Xanomeline High Dose",81,"Xanomeline High Dose",81,"WEIGHT","Weight (kg)",4,"2014-07-29",29,null,"","Week 4",4,63.96,62.6,1.36,2.17252396166,5,"WEEK 4",135,"Y",""],["CDISCPILOT01","701","01-701-1034",77,"65-80",2,"WHITE",1,"F","Y","2014-07-01","2014-12-30","Xanomeline High Dose",81,"Xanomeline High Dose",81,"WEIGHT","Weight (kg)",4,"2014-08-11",42,null,"","Week 6",6,63.96,62.6,1.36,2.17252396166,7,"WEEK 6",136,"Y",""],["CDISCPILOT01","701","01-701-1034",77,"65-80",2,"WHITE",1,"F","Y","2014-07-01","2014-12-30","Xanomeline High Dose",81,"Xanomeline High Dose",81,"WEIGHT","Weight (kg)",4,"2014-08-26",57,null,"","Week 8",8,63.05,62.6,0.45,0.718849840256,8,"WEEK 8",137,"Y",""],["CDISCPILOT01","701","01-701-1034",77,"65-80",2,"WHITE",1,"F","Y","2014-07-01","2014-12-30","Xanomeline High Dose",81,"Xanomeline High Dose",81,"WEIGHT","Weight (kg)",4,"2014-09-25",87,null,"","Week 12",12,63.05,62.6,0.45,0.718849840256,9,"WEEK 12",138,"Y",""],["CDISCPILOT01","701","01-701-1034",77,"65-80",2,"WHITE",1,"F","Y","2014-07-01","2014-12-30","Xanomeline High Dose",81,"Xanomeline High Dose",81,"WEIGHT","Weight (kg)",4,"2014-10-21",113,null,"","Week 16",16,64.41,62.6,1.81,2.89137380192,10,"WEEK 16",139,"Y",""],["CDISCPILOT01","701","01-701-1034",77,"65-80",2,"WHITE",1,"F","Y","2014-07-01","2014-12-30","Xanomeline High Dose",81,"Xanomeline High Dose",81,"WEIGHT","Weight (kg)",4,"2014-11-18",141,null,"","Week 20",20,64.86,62.6,2.26,3.61022364217,11,"WEEK 20",140,"Y",""],["CDISCPILOT01","701","01-701-1034",77,"65-80",2,"WHITE",1,"F","Y","2014-07-01","2014-12-30","Xanomeline High Dose",81,"Xanomeline High Dose",81,"WEIGHT","Weight (kg)",4,"2014-12-17",170,null,"","Week 24",24,65.32,62.6,2.72,4.34504792332,12,"WEEK 24",141,"Y",""],["CDISCPILOT01","701","01-701-1034",77,"65-80",2,"WHITE",1,"F","Y","2014-07-01","2014-12-30","Xanomeline High Dose",81,"Xanomeline High Dose",81,"WEIGHT","Weight (kg)",4,"2014-12-30",183,null,"","Week 26",26,63.96,62.6,1.36,2.17252396166,13,"WEEK 26",142,"Y",""],["CDISCPILOT01","701","01-701-1034",77,"65-80",2,"WHITE",1,"F","Y","2014-07-01","2014-12-30","Xanomeline High Dose",81,"Xanomeline High Dose",81,"WEIGHT","Weight (kg)",4,"2014-12-30",183,null,"","End of Treatment",99,63.96,62.6,1.36,2.17252396166,13,"WEEK 26",142,"Y",""],["CDISCPILOT01","701","01-701-1047",85,">80",3,"WHITE",1,"F","Y","2013-02-12","2013-03-09","Placebo",0,"Placebo",0,"DIABP","Diastolic Blood Pressure (mmHg)",2,"2013-01-22",-21,815,"AFTER LYING DOWN FOR 5 MINUTES","",null,68,61,7,11.4754098361,1,"SCREENING 1",1,"",""],["CDISCPILOT01","701","01-701-1047",85,">80",3,"WHITE",1,"F","Y","2013-02-12","2013-03-09","Placebo",0,"Placebo",0,"DIABP","Diastolic Blood Pressure (mmHg)",2,"2013-02-10",-2,815,"AFTER LYING DOWN FOR 5 MINUTES","",null,65,61,4,6.55737704918,2,"SCREENING 2",4,"",""],["CDISCPILOT01","701","01-701-1047",85,">80",3,"WHITE",1,"F","Y","2013-02-12","2013-03-09","Placebo",0,"Placebo",0,"DIABP","Diastolic Blood Pressure (mmHg)",2,"2013-02-12",1,815,"AFTER LYING DOWN FOR 5 MINUTES","Baseline",0,61,61,0,0,3,"BASELINE",7,"Y","Y"],["CDISCPILOT01","701","01-701-1047",85,">80",3,"WHITE",1,"F","Y","2013-02-12","2013-03-09","Placebo",0,"Placebo",0,"DIABP","Diastolic Blood Pressure (mmHg)",2,"2013-02-24",13,815,"AFTER LYING DOWN FOR 5 MINUTES","",null,72,61,11,18.0327868852,3.5,"AMBUL ECG PLACEMENT",10,"",""],["CDISCPILOT01","701","01-701-1047",85,">80",3,"WHITE",1,"F","Y","2013-02-12","2013-03-09","Placebo",0,"Placebo",0,"DIABP","Diastolic Blood Pressure (mmHg)",2,"2013-02-25",14,815,"AFTER LYING DOWN FOR 5 MINUTES","Week 2",2,72,61,11,18.0327868852,4,"WEEK 2",13,"Y",""],["CDISCPILOT01","701","01-701-1047",85,">80",3,"WHITE",1,"F","Y","2013-02-12","2013-03-09","Placebo",0,"Placebo",0,"DIABP","Diastolic Blood Pressure (mmHg)",2,"2013-03-10",27,815,"AFTER LYING DOWN FOR 5 MINUTES","Week 4",4,72,61,11,18.0327868852,5,"WEEK 4",16,"Y",""],["CDISCPILOT01","701","01-701-1047",85,">80",3,"WHITE",1,"F","Y","2013-02-12","2013-03-09","Placebo",0,"Placebo",0,"DIABP","Diastolic Blood Pressure (mmHg)",2,"2013-03-10",27,815,"AFTER LYING DOWN FOR 5 MINUTES","End of Treatment",99,72,61,11,18.0327868852,5,"WEEK 4",16,"Y",""],["CDISCPILOT01","701","01-701-1047",85,">80",3,"WHITE",1,"F","Y","2013-02-12","2013-03-09","Placebo",0,"Placebo",0,"DIABP","Diastolic Blood Pressure (mmHg)",2,"2013-03-29",46,815,"AFTER LYING DOWN FOR 5 MINUTES","",null,71,61,10,16.393442623,6,"AMBUL ECG REMOVAL",19,"",""],["CDISCPILOT01","701","01-701-1047",85,">80",3,"WHITE",1,"F","Y","2013-02-12","2013-03-09","Placebo",0,"Placebo",0,"DIABP","Diastolic Blood Pressure (mmHg)",2,"2013-07-28",167,815,"AFTER LYING DOWN FOR 5 MINUTES","",null,76,61,15,24.5901639344,201,"RETRIEVAL",22,"",""],["CDISCPILOT01","701","01-701-1047",85,">80",3,"WHITE",1,"F","Y","2013-02-12","2013-03-09","Placebo",0,"Placebo",0,"DIABP","Diastolic Blood Pressure (mmHg)",2,"2013-01-22",-21,816,"AFTER STANDING FOR 1 MINUTE","",null,71,68,3,4.41176470588,1,"SCREENING 1",2,"",""],["CDISCPILOT01","701","01-701-1047",85,">80",3,"WHITE",1,"F","Y","2013-02-12","2013-03-09","Placebo",0,"Placebo",0,"DIABP","Diastolic Blood Pressure (mmHg)",2,"2013-02-10",-2,816,"AFTER STANDING FOR 1 MINUTE","",null,86,68,18,26.4705882353,2,"SCREENING 2",5,"",""],["CDISCPILOT01","701","01-701-1047",85,">80",3,"WHITE",1,"F","Y","2013-02-12","2013-03-09","Placebo",0,"Placebo",0,"DIABP","Diastolic Blood Pressure (mmHg)",2,"2013-02-12",1,816,"AFTER STANDING FOR 1 MINUTE","Baseline",0,68,68,0,0,3,"BASELINE",8,"Y","Y"],["CDISCPILOT01","701","01-701-1047",85,">80",3,"WHITE",1,"F","Y","2013-02-12","2013-03-09","Placebo",0,"Placebo",0,"DIABP","Diastolic Blood Pressure (mmHg)",2,"2013-02-24",13,816,"AFTER STANDING FOR 1 MINUTE","",null,56,68,-12,-17.6470588235,3.5,"AMBUL ECG PLACEMENT",11,"",""],["CDISCPILOT01","701","01-701-1047",85,">80",3,"WHITE",1,"F","Y","2013-02-12","2013-03-09","Placebo",0,"Placebo",0,"DIABP","Diastolic Blood Pressure (mmHg)",2,"2013-02-25",14,816,"AFTER STANDING FOR 1 MINUTE","Week 2",2,84,68,16,23.5294117647,4,"WEEK 2",14,"Y",""],["CDISCPILOT01","701","01-701-1047",85,">80",3,"WHITE",1,"F","Y","2013-02-12","2013-03-09","Placebo",0,"Placebo",0,"DIABP","Diastolic Blood Pressure (mmHg)",2,"2013-03-10",27,816,"AFTER STANDING FOR 1 MINUTE","Week 4",4,71,68,3,4.41176470588,5,"WEEK 4",17,"Y",""],["CDISCPILOT01","701","01-701-1047",85,">80",3,"WHITE",1,"F","Y","2013-02-12","2013-03-09","Placebo",0,"Placebo",0,"DIABP","Diastolic Blood Pressure (mmHg)",2,"2013-03-10",27,816,"AFTER STANDING FOR 1 MINUTE","End of Treatment",99,71,68,3,4.41176470588,5,"WEEK 4",17,"Y",""],["CDISCPILOT01","701","01-701-1047",85,">80",3,"WHITE",1,"F","Y","2013-02-12","2013-03-09","Placebo",0,"Placebo",0,"DIABP","Diastolic Blood Pressure (mmHg)",2,"2013-03-29",46,816,"AFTER STANDING FOR 1 MINUTE","",null,63,68,-5,-7.35294117647,6,"AMBUL ECG REMOVAL",20,"",""],["CDISCPILOT01","701","01-701-1047",85,">80",3,"WHITE",1,"F","Y","2013-02-12","2013-03-09","Placebo",0,"Placebo",0,"DIABP","Diastolic Blood Pressure (mmHg)",2,"2013-07-28",167,816,"AFTER STANDING FOR 1 MINUTE","",null,71,68,3,4.41176470588,201,"RETRIEVAL",23,"",""],["CDISCPILOT01","701","01-701-1047",85,">80",3,"WHITE",1,"F","Y","2013-02-12","2013-03-09","Placebo",0,"Placebo",0,"DIABP","Diastolic Blood Pressure (mmHg)",2,"2013-01-22",-21,817,"AFTER STANDING FOR 3 MINUTES","",null,83,78,5,6.41025641026,1,"SCREENING 1",3,"",""],["CDISCPILOT01","701","01-701-1047",85,">80",3,"WHITE",1,"F","Y","2013-02-12","2013-03-09","Placebo",0,"Placebo",0,"DIABP","Diastolic Blood Pressure (mmHg)",2,"2013-02-10",-2,817,"AFTER STANDING FOR 3 MINUTES","",null,71,78,-7,-8.97435897436,2,"SCREENING 2",6,"",""],["CDISCPILOT01","701","01-701-1047",85,">80",3,"WHITE",1,"F","Y","2013-02-12","2013-03-09","Placebo",0,"Placebo",0,"DIABP","Diastolic Blood Pressure (mmHg)",2,"2013-02-12",1,817,"AFTER STANDING FOR 3 MINUTES","Baseline",0,78,78,0,0,3,"BASELINE",9,"Y","Y"],["CDISCPILOT01","701","01-701-1047",85,">80",3,"WHITE",1,"F","Y","2013-02-12","2013-03-09","Placebo",0,"Placebo",0,"DIABP","Diastolic Blood Pressure (mmHg)",2,"2013-02-24",13,817,"AFTER STANDING FOR 3 MINUTES","",null,73,78,-5,-6.41025641026,3.5,"AMBUL ECG PLACEMENT",12,"",""],["CDISCPILOT01","701","01-701-1047",85,">80",3,"WHITE",1,"F","Y","2013-02-12","2013-03-09","Placebo",0,"Placebo",0,"DIABP","Diastolic Blood Pressure (mmHg)",2,"2013-02-25",14,817,"AFTER STANDING FOR 3 MINUTES","Week 2",2,73,78,-5,-6.41025641026,4,"WEEK 2",15,"Y",""],["CDISCPILOT01","701","01-701-1047",85,">80",3,"WHITE",1,"F","Y","2013-02-12","2013-03-09","Placebo",0,"Placebo",0,"DIABP","Diastolic Blood Pressure (mmHg)",2,"2013-03-10",27,817,"AFTER STANDING FOR 3 MINUTES","Week 4",4,78,78,0,0,5,"WEEK 4",18,"Y",""],["CDISCPILOT01","701","01-701-1047",85,">80",3,"WHITE",1,"F","Y","2013-02-12","2013-03-09","Placebo",0,"Placebo",0,"DIABP","Diastolic Blood Pressure (mmHg)",2,"2013-03-10",27,817,"AFTER STANDING FOR 3 MINUTES","End of Treatment",99,78,78,0,0,5,"WEEK 4",18,"Y",""],["CDISCPILOT01","701","01-701-1047",85,">80",3,"WHITE",1,"F","Y","2013-02-12","2013-03-09","Placebo",0,"Placebo",0,"DIABP","Diastolic Blood Pressure (mmHg)",2,"2013-03-29",46,817,"AFTER STANDING FOR 3 MINUTES","",null,57,78,-21,-26.9230769231,6,"AMBUL ECG REMOVAL",21,"",""],["CDISCPILOT01","701","01-701-1047",85,">80",3,"WHITE",1,"F","Y","2013-02-12","2013-03-09","Placebo",0,"Placebo",0,"DIABP","Diastolic Blood Pressure (mmHg)",2,"2013-07-28",167,817,"AFTER STANDING FOR 3 MINUTES","",null,65,78,-13,-16.6666666667,201,"RETRIEVAL",24,"",""],["CDISCPILOT01","701","01-701-1047",85,">80",3,"WHITE",1,"F","Y","2013-02-12","2013-03-09","Placebo",0,"Placebo",0,"HEIGHT","Height (cm)",5,"2013-01-22",-21,null,"","",null,148.59,null,null,null,1,"SCREENING 1",25,"",""],["CDISCPILOT01","701","01-701-1047",85,">80",3,"WHITE",1,"F","Y","2013-02-12","2013-03-09","Placebo",0,"Placebo",0,"PULSE","Pulse Rate (BEATS/MIN)",3,"2013-01-22",-21,815,"AFTER LYING DOWN FOR 5 MINUTES","",null,53,58,-5,-8.62068965517,1,"SCREENING 1",26,"",""],["CDISCPILOT01","701","01-701-1047",85,">80",3,"WHITE",1,"F","Y","2013-02-12","2013-03-09","Placebo",0,"Placebo",0,"PULSE","Pulse Rate (BEATS/MIN)",3,"2013-02-10",-2,815,"AFTER LYING DOWN FOR 5 MINUTES","",null,58,58,0,0,2,"SCREENING 2",29,"",""],["CDISCPILOT01","701","01-701-1047",85,">80",3,"WHITE",1,"F","Y","2013-02-12","2013-03-09","Placebo",0,"Placebo",0,"PULSE","Pulse Rate (BEATS/MIN)",3,"2013-02-12",1,815,"AFTER LYING DOWN FOR 5 MINUTES","Baseline",0,58,58,0,0,3,"BASELINE",32,"Y","Y"],["CDISCPILOT01","701","01-701-1047",85,">80",3,"WHITE",1,"F","Y","2013-02-12","2013-03-09","Placebo",0,"Placebo",0,"PULSE","Pulse Rate (BEATS/MIN)",3,"2013-02-24",13,815,"AFTER LYING DOWN FOR 5 MINUTES","",null,62,58,4,6.89655172414,3.5,"AMBUL ECG PLACEMENT",35,"",""],["CDISCPILOT01","701","01-701-1047",85,">80",3,"WHITE",1,"F","Y","2013-02-12","2013-03-09","Placebo",0,"Placebo",0,"PULSE","Pulse Rate (BEATS/MIN)",3,"2013-02-25",14,815,"AFTER LYING DOWN FOR 5 MINUTES","Week 2",2,66,58,8,13.7931034483,4,"WEEK 2",38,"Y",""],["CDISCPILOT01","701","01-701-1047",85,">80",3,"WHITE",1,"F","Y","2013-02-12","2013-03-09","Placebo",0,"Placebo",0,"PULSE","Pulse Rate (BEATS/MIN)",3,"2013-03-10",27,815,"AFTER LYING DOWN FOR 5 MINUTES","Week 4",4,69,58,11,18.9655172414,5,"WEEK 4",41,"Y",""],["CDISCPILOT01","701","01-701-1047",85,">80",3,"WHITE",1,"F","Y","2013-02-12","2013-03-09","Placebo",0,"Placebo",0,"PULSE","Pulse Rate (BEATS/MIN)",3,"2013-03-10",27,815,"AFTER LYING DOWN FOR 5 MINUTES","End of Treatment",99,69,58,11,18.9655172414,5,"WEEK 4",41,"Y",""],["CDISCPILOT01","701","01-701-1047",85,">80",3,"WHITE",1,"F","Y","2013-02-12","2013-03-09","Placebo",0,"Placebo",0,"PULSE","Pulse Rate (BEATS/MIN)",3,"2013-03-29",46,815,"AFTER LYING DOWN FOR 5 MINUTES","",null,78,58,20,34.4827586207,6,"AMBUL ECG REMOVAL",44,"",""],["CDISCPILOT01","701","01-701-1047",85,">80",3,"WHITE",1,"F","Y","2013-02-12","2013-03-09","Placebo",0,"Placebo",0,"PULSE","Pulse Rate (BEATS/MIN)",3,"2013-07-28",167,815,"AFTER LYING DOWN FOR 5 MINUTES","",null,58,58,0,0,201,"RETRIEVAL",47,"",""],["CDISCPILOT01","701","01-701-1047",85,">80",3,"WHITE",1,"F","Y","2013-02-12","2013-03-09","Placebo",0,"Placebo",0,"PULSE","Pulse Rate (BEATS/MIN)",3,"2013-01-22",-21,816,"AFTER STANDING FOR 1 MINUTE","",null,64,67,-3,-4.4776119403,1,"SCREENING 1",27,"",""],["CDISCPILOT01","701","01-701-1047",85,">80",3,"WHITE",1,"F","Y","2013-02-12","2013-03-09","Placebo",0,"Placebo",0,"PULSE","Pulse Rate (BEATS/MIN)",3,"2013-02-10",-2,816,"AFTER STANDING FOR 1 MINUTE","",null,74,67,7,10.447761194,2,"SCREENING 2",30,"",""],["CDISCPILOT01","701","01-701-1047",85,">80",3,"WHITE",1,"F","Y","2013-02-12","2013-03-09","Placebo",0,"Placebo",0,"PULSE","Pulse Rate (BEATS/MIN)",3,"2013-02-12",1,816,"AFTER STANDING FOR 1 MINUTE","Baseline",0,67,67,0,0,3,"BASELINE",33,"Y","Y"],["CDISCPILOT01","701","01-701-1047",85,">80",3,"WHITE",1,"F","Y","2013-02-12","2013-03-09","Placebo",0,"Placebo",0,"PULSE","Pulse Rate (BEATS/MIN)",3,"2013-02-24",13,816,"AFTER STANDING FOR 1 MINUTE","",null,74,67,7,10.447761194,3.5,"AMBUL ECG PLACEMENT",36,"",""],["CDISCPILOT01","701","01-701-1047",85,">80",3,"WHITE",1,"F","Y","2013-02-12","2013-03-09","Placebo",0,"Placebo",0,"PULSE","Pulse Rate (BEATS/MIN)",3,"2013-02-25",14,816,"AFTER STANDING FOR 1 MINUTE","Week 2",2,75,67,8,11.9402985075,4,"WEEK 2",39,"Y",""],["CDISCPILOT01","701","01-701-1047",85,">80",3,"WHITE",1,"F","Y","2013-02-12","2013-03-09","Placebo",0,"Placebo",0,"PULSE","Pulse Rate (BEATS/MIN)",3,"2013-03-10",27,816,"AFTER STANDING FOR 1 MINUTE","Week 4",4,64,67,-3,-4.4776119403,5,"WEEK 4",42,"Y",""],["CDISCPILOT01","701","01-701-1047",85,">80",3,"WHITE",1,"F","Y","2013-02-12","2013-03-09","Placebo",0,"Placebo",0,"PULSE","Pulse Rate (BEATS/MIN)",3,"2013-03-10",27,816,"AFTER STANDING FOR 1 MINUTE","End of Treatment",99,64,67,-3,-4.4776119403,5,"WEEK 4",42,"Y",""],["CDISCPILOT01","701","01-701-1047",85,">80",3,"WHITE",1,"F","Y","2013-02-12","2013-03-09","Placebo",0,"Placebo",0,"PULSE","Pulse Rate (BEATS/MIN)",3,"2013-03-29",46,816,"AFTER STANDING FOR 1 MINUTE","",null,90,67,23,34.328358209,6,"AMBUL ECG REMOVAL",45,"",""],["CDISCPILOT01","701","01-701-1047",85,">80",3,"WHITE",1,"F","Y","2013-02-12","2013-03-09","Placebo",0,"Placebo",0,"PULSE","Pulse Rate (BEATS/MIN)",3,"2013-07-28",167,816,"AFTER STANDING FOR 1 MINUTE","",null,72,67,5,7.46268656716,201,"RETRIEVAL",48,"",""],["CDISCPILOT01","701","01-701-1047",85,">80",3,"WHITE",1,"F","Y","2013-02-12","2013-03-09","Placebo",0,"Placebo",0,"PULSE","Pulse Rate (BEATS/MIN)",3,"2013-01-22",-21,817,"AFTER STANDING FOR 3 MINUTES","",null,61,67,-6,-8.9552238806,1,"SCREENING 1",28,"",""],["CDISCPILOT01","701","01-701-1047",85,">80",3,"WHITE",1,"F","Y","2013-02-12","2013-03-09","Placebo",0,"Placebo",0,"PULSE","Pulse Rate (BEATS/MIN)",3,"2013-02-10",-2,817,"AFTER STANDING FOR 3 MINUTES","",null,73,67,6,8.9552238806,2,"SCREENING 2",31,"",""],["CDISCPILOT01","701","01-701-1047",85,">80",3,"WHITE",1,"F","Y","2013-02-12","2013-03-09","Placebo",0,"Placebo",0,"PULSE","Pulse Rate (BEATS/MIN)",3,"2013-02-12",1,817,"AFTER STANDING FOR 3 MINUTES","Baseline",0,67,67,0,0,3,"BASELINE",34,"Y","Y"],["CDISCPILOT01","701","01-701-1047",85,">80",3,"WHITE",1,"F","Y","2013-02-12","2013-03-09","Placebo",0,"Placebo",0,"PULSE","Pulse Rate (BEATS/MIN)",3,"2013-02-24",13,817,"AFTER STANDING FOR 3 MINUTES","",null,72,67,5,7.46268656716,3.5,"AMBUL ECG PLACEMENT",37,"",""],["CDISCPILOT01","701","01-701-1047",85,">80",3,"WHITE",1,"F","Y","2013-02-12","2013-03-09","Placebo",0,"Placebo",0,"PULSE","Pulse Rate (BEATS/MIN)",3,"2013-02-25",14,817,"AFTER STANDING FOR 3 MINUTES","Week 2",2,78,67,11,16.4179104478,4,"WEEK 2",40,"Y",""],["CDISCPILOT01","701","01-701-1047",85,">80",3,"WHITE",1,"F","Y","2013-02-12","2013-03-09","Placebo",0,"Placebo",0,"PULSE","Pulse Rate (BEATS/MIN)",3,"2013-03-10",27,817,"AFTER STANDING FOR 3 MINUTES","Week 4",4,70,67,3,4.4776119403,5,"WEEK 4",43,"Y",""],["CDISCPILOT01","701","01-701-1047",85,">80",3,"WHITE",1,"F","Y","2013-02-12","2013-03-09","Placebo",0,"Placebo",0,"PULSE","Pulse Rate (BEATS/MIN)",3,"2013-03-10",27,817,"AFTER STANDING FOR 3 MINUTES","End of Treatment",99,70,67,3,4.4776119403,5,"WEEK 4",43,"Y",""],["CDISCPILOT01","701","01-701-1047",85,">80",3,"WHITE",1,"F","Y","2013-02-12","2013-03-09","Placebo",0,"Placebo",0,"PULSE","Pulse Rate (BEATS/MIN)",3,"2013-03-29",46,817,"AFTER STANDING FOR 3 MINUTES","",null,87,67,20,29.8507462687,6,"AMBUL ECG REMOVAL",46,"",""],["CDISCPILOT01","701","01-701-1047",85,">80",3,"WHITE",1,"F","Y","2013-02-12","2013-03-09","Placebo",0,"Placebo",0,"PULSE","Pulse Rate (BEATS/MIN)",3,"2013-07-28",167,817,"AFTER STANDING FOR 3 MINUTES","",null,72,67,5,7.46268656716,201,"RETRIEVAL",49,"",""],["CDISCPILOT01","701","01-701-1047",85,">80",3,"WHITE",1,"F","Y","2013-02-12","2013-03-09","Placebo",0,"Placebo",0,"SYSBP","Systolic Blood Pressure (mmHg)",1,"2013-01-22",-21,815,"AFTER LYING DOWN FOR 5 MINUTES","",null,165,151,14,9.27152317881,1,"SCREENING 1",50,"",""],["CDISCPILOT01","701","01-701-1047",85,">80",3,"WHITE",1,"F","Y","2013-02-12","2013-03-09","Placebo",0,"Placebo",0,"SYSBP","Systolic Blood Pressure (mmHg)",1,"2013-02-10",-2,815,"AFTER LYING DOWN FOR 5 MINUTES","",null,159,151,8,5.29801324503,2,"SCREENING 2",53,"",""],["CDISCPILOT01","701","01-701-1047",85,">80",3,"WHITE",1,"F","Y","2013-02-12","2013-03-09","Placebo",0,"Placebo",0,"SYSBP","Systolic Blood Pressure (mmHg)",1,"2013-02-12",1,815,"AFTER LYING DOWN FOR 5 MINUTES","Baseline",0,151,151,0,0,3,"BASELINE",56,"Y","Y"],["CDISCPILOT01","701","01-701-1047",85,">80",3,"WHITE",1,"F","Y","2013-02-12","2013-03-09","Placebo",0,"Placebo",0,"SYSBP","Systolic Blood Pressu