{"datasetJSONCreationDateTime":"2024-12-18T15:34:14","datasetJSONVersion":"1.1.0","fileOID":"CDISCPILOT01.supplb","dbLastModifiedDateTime":"2012-04-04T22:16:22","originator":"CDISC Data Exchange Standards Team","sourceSystem":{"name":"SAS on X64_10PRO","version":"9.0401M7"},"studyOID":"CDISCPILOT01","metaDataVersionOID":"CDISC.SDTMIG.3.1.2","metaDataRef":"define.xml","itemGroupOID":"SUPPLB","records":64403,"name":"SUPPLB","label":"Supplemental Qualifiers for LB","columns":[{"itemOID":"SUPPLB.STUDYID","name":"STUDYID","label":"Study Identifier","dataType":"string","length":12,"keySequence":1},{"itemOID":"SUPPLB.RDOMAIN","name":"RDOMAIN","label":"Related Domain Abbreviation","dataType":"string","length":2,"keySequence":2},{"itemOID":"SUPPLB.USUBJID","name":"USUBJID","label":"Unique Subject Identifier","dataType":"string","length":11,"keySequence":3},{"itemOID":"SUPPLB.IDVAR","name":"IDVAR","label":"Identifying Variable","dataType":"string","length":8,"keySequence":4},{"itemOID":"SUPPLB.IDVARVAL","name":"IDVARVAL","label":"Identifying Variable Value","dataType":"string","length":200,"keySequence":5},{"itemOID":"SUPPLB.QNAM","name":"QNAM","label":"Qualifier Variable Name","dataType":"string","length":8,"keySequence":6},{"itemOID":"SUPPLB.QLABEL","name":"QLABEL","label":"Qualifier Variable Label","dataType":"string","length":40},{"itemOID":"SUPPLB.QVAL","name":"QVAL","label":"Data Value","dataType":"string","length":200},{"itemOID":"SUPPLB.QORIG","name":"QORIG","label":"Origin","dataType":"string","length":200},{"itemOID":"SUPPLB.QEVAL","name":"QEVAL","label":"Evaluator","dataType":"string","length":200}],"rows":[["CDISCPILOT01","LB","01-701-1015","LBSEQ","       1","LBTMSHI","LAB RESULT/UPPER LIMIT OF NORMAL","0.8","DERIVED","CLINICAL STUDY SPONSOR"],["CDISCPILOT01","LB","01-701-1015","LBSEQ","       2","LBTMSHI","LAB RESULT/UPPER LIMIT OF NORMAL","0.3","DERIVED","CLINICAL STUDY SPONSOR"],["CDISCPILOT01","LB","01-701-1015","LBSEQ","       3","LBTMSHI","LAB RESULT/UPPER LIMIT OF NORMAL","0.8","DERIVED","CLINICAL STUDY SPONSOR"],["CDISCPILOT01","LB","01-701-1015","LBSEQ","       5","LBTMSHI","LAB RESULT/UPPER LIMIT OF NORMAL","1.2","DERIVED","CLINICAL STUDY SPONSOR"],["CDISCPILOT01","LB","01-701-1015","LBSEQ","       6","LBTMSHI","LAB RESULT/UPPER LIMIT OF NORMAL","0.3","DERIVED","CLINICAL STUDY SPONSOR"],["CDISCPILOT01","LB","01-701-1015","LBSEQ","       7","LBTMSHI","LAB RESULT/UPPER LIMIT OF NORMAL","0.5","DERIVED","CLINICAL STUDY SPONSOR"],["CDISCPILOT01","LB","01-701-1015","LBSEQ","       8","LBTMSHI","LAB RESULT/UPPER LIMIT OF NORMAL","0.4","DERIVED","CLINICAL STUDY SPONSOR"],["CDISCPILOT01","LB","01-701-1015","LBSEQ","       9","LBTMSHI","LAB RESULT/UPPER LIMIT OF NORMAL","0.9","DERIVED","CLINICAL STUDY SPONSOR"],["CDISCPILOT01","LB","01-701-1015","LBSEQ","      10","LBTMSHI","LAB RESULT/UPPER LIMIT OF NORMAL","0.8","DERIVED","CLINICAL STUDY SPONSOR"],["CDISCPILOT01","LB","01-701-1015","LBSEQ","      11","LBTMSHI","LAB RESULT/UPPER LIMIT OF NORMAL","0.4","DERIVED","CLINICAL STUDY SPONSOR"],["CDISCPILOT01","LB","01-701-1015","LBSEQ","      12","LBTMSHI","LAB RESULT/UPPER LIMIT OF NORMAL","0.9","DERIVED","CLINICAL STUDY SPONSOR"],["CDISCPILOT01","LB","01-701-1015","LBSEQ","      14","LBTMSHI","LAB RESULT/UPPER LIMIT OF NORMAL","0.6","DERIVED","CLINICAL STUDY SPONSOR"],["CDISCPILOT01","LB","01-701-1015","LBSEQ","      15","LBTMSHI","LAB RESULT/UPPER LIMIT OF NORMAL","0.2","DERIVED","CLINICAL STUDY SPONSOR"],["CDISCPILOT01","LB","01-701-1015","LBSEQ","      16","LBTMSHI","LAB RESULT/UPPER LIMIT OF NORMAL","0.3","DERIVED","CLINICAL STUDY SPONSOR"],["CDISCPILOT01","LB","01-701-1015","LBSEQ","      17","LBTMSHI","LAB RESULT/UPPER LIMIT OF NORMAL","0.3","DERIVED","CLINICAL STUDY SPONSOR"],["CDISCPILOT01","LB","01-701-1015","LBSEQ","      18","LBTMSHI","LAB RESULT/UPPER LIMIT OF NORMAL","0.9","DERIVED","CLINICAL STUDY SPONSOR"],["CDISCPILOT01","LB","01-701-1015","LBSEQ","      19","LBTMSHI","LAB RESULT/UPPER LIMIT OF NORMAL","0.9","DERIVED","CLINICAL STUDY SPONSOR"],["CDISCPILOT01","LB","01-701-1015","LBSEQ","      20","LBTMSHI","LAB RESULT/UPPER LIMIT OF NORMAL","0.8","DERIVED","CLINICAL STUDY SPONSOR"],["CDISCPILOT01","LB","01-701-1015","LBSEQ","      22","LBTMSHI","LAB RESULT/UPPER LIMIT OF NORMAL","0.7","DERIVED","CLINICAL STUDY SPONSOR"],["CDISCPILOT01","LB","01-701-1015","LBSEQ","      23","LBTMSHI","LAB RESULT/UPPER LIMIT OF NORMAL","0.8","DERIVED","CLINICAL STUDY SPONSOR"],["CDISCPILOT01","LB","01-701-1015","LBSEQ","      24","LBTMSHI","LAB RESULT/UPPER LIMIT OF NORMAL","0.9","DERIVED","CLINICAL STUDY SPONSOR"],["CDISCPILOT01","LB","01-701-1015","LBSEQ","      25","LBTMSHI","LAB RESULT/UPPER LIMIT OF NORMAL","0.8","DERIVED","CLINICAL STUDY SPONSOR"],["CDISCPILOT01","LB","01-701-1015","LBSEQ","      26","LBTMSHI","LAB RESULT/UPPER LIMIT OF NORMAL","0.2","DERIVED","CLINICAL STUDY SPONSOR"],["CDISCPILOT01","LB","01-701-1015","LBSEQ","      27","LBTMSHI","LAB RESULT/UPPER LIMIT OF NORMAL","1.0","DERIVED","CLINICAL STUDY SPONSOR"],["CDISCPILOT01","LB","01-701-1015","LBSEQ","      28","LBTMSHI","LAB RESULT/UPPER LIMIT OF NORMAL","0.6","DERIVED","CLINICAL STUDY SPONSOR"],["CDISCPILOT01","LB","01-701-1015","LBSEQ","      29","LBTMSHI","LAB RESULT/UPPER LIMIT OF NORMAL","0.7","DERIVED","CLINICAL STUDY SPONSOR"],["CDISCPILOT01","LB","01-701-1015","LBSEQ","      30","LBTMSHI","LAB RESULT/UPPER LIMIT OF NORMAL","0.7","DERIVED","CLINICAL STUDY SPONSOR"],["CDISCPILOT01","LB","01-701-1015","LBSEQ","      31","LBTMSHI","LAB RESULT/UPPER LIMIT OF NORMAL","0.8","DERIVED","CLINICAL STUDY SPONSOR"],["CDISCPILOT01","LB","01-701-1015","LBSEQ","      32","LBTMSHI","LAB RESULT/UPPER LIMIT OF NORMAL","1.0","DERIVED","CLINICAL STUDY SPONSOR"],["CDISCPILOT01","LB","01-701-1015","LBSEQ","      33","LBTMSHI","LAB RESULT/UPPER LIMIT OF NORMAL","1.0","DERIVED","CLINICAL STUDY SPONSOR"],["CDISCPILOT01","LB","01-701-1015","LBSEQ","      34","LBTMSHI","LAB RESULT/UPPER LIMIT OF NORMAL","0.3","DERIVED","CLINICAL STUDY SPONSOR"],["CDISCPILOT01","LB","01-701-1015","LBSEQ","      35","LBTMSHI","LAB RESULT/UPPER LIMIT OF NORMAL","0.6","DERIVED","CLINICAL STUDY SPONSOR"],["CDISCPILOT01","LB","01-701-1015","LBSEQ","      37","LBTMSHI","LAB RESULT/UPPER LIMIT OF NORMAL","0.4","DERIVED","CLINICAL STUDY SPONSOR"],["CDISCPILOT01","LB","01-701-1015","LBSEQ","      38","LBTMSHI","LAB RESULT/UPPER LIMIT OF NORMAL","0.5","DERIVED","CLINICAL STUDY SPONSOR"],["CDISCPILOT01","LB","01-701-1015","LBSEQ","      39","LBTMSHI","LAB RESULT/UPPER LIMIT OF NORMAL","0.8","DERIVED","CLINICAL STUDY SPONSOR"],["CDISCPILOT01","LB","01-701-1015","LBSEQ","      40","LBTMSHI","LAB RESULT/UPPER LIMIT OF NORMAL","0.4","DERIVED","CLINICAL STUDY SPONSOR"],["CDISCPILOT01","LB","01-701-1015","LBSEQ","      41","LBTMSHI","LAB RESULT/UPPER LIMIT OF NORMAL","1.2","DERIVED","CLINICAL STUDY SPONSOR"],["CDISCPILOT01","LB","01-701-1015","LBSEQ","      42","LBTMSHI","LAB RESULT/UPPER LIMIT OF NORMAL","1.0","DERIVED","CLINICAL STUDY SPONSOR"],["CDISCPILOT01","LB","01-701-1015","LBSEQ","      43","LBTMSHI","LAB RESULT/UPPER LIMIT OF NORMAL","0.2","DERIVED","CLINICAL STUDY SPONSOR"],["CDISCPILOT01","LB","01-701-1015","LBSEQ","      44","LBTMSHI","LAB RESULT/UPPER LIMIT OF NORMAL","0.4","DERIVED","CLINICAL STUDY SPONSOR"],["CDISCPILOT01","LB","01-701-1015","LBSEQ","      45","LBTMSHI","LAB RESULT/UPPER LIMIT OF NORMAL","0.4","DERIVED","CLINICAL STUDY SPONSOR"],["CDISCPILOT01","LB","01-701-1015","LBSEQ","      46","LBTMSHI","LAB RESULT/UPPER LIMIT OF NORMAL","0.9","DERIVED","CLINICAL STUDY SPONSOR"],["CDISCPILOT01","LB","01-701-1015","LBSEQ","      47","LBTMSHI","LAB RESULT/UPPER LIMIT OF NORMAL","0.7","DERIVED","CLINICAL STUDY SPONSOR"],["CDISCPILOT01","LB","01-701-1015","LBSEQ","      48","LBTMSHI","LAB RESULT/UPPER LIMIT OF NORMAL","0.3","DERIVED","CLINICAL STUDY SPONSOR"],["CDISCPILOT01","LB","01-701-1015","LBSEQ","      49","LBTMSHI","LAB RESULT/UPPER LIMIT OF NORMAL","0.9","DERIVED","CLINICAL STUDY SPONSOR"],["CDISCPILOT01","LB","01-701-1015","LBSEQ","      51","LBTMSHI","LAB RESULT/UPPER LIMIT OF NORMAL","0.7","DERIVED","CLINICAL STUDY SPONSOR"],["CDISCPILOT01","LB","01-701-1015","LBSEQ","      52","LBTMSHI","LAB RESULT/UPPER LIMIT OF NORMAL","0.1","DERIVED","CLINICAL STUDY SPONSOR"],["CDISCPILOT01","LB","01-701-1015","LBSEQ","      53","LBTMSHI","LAB RESULT/UPPER LIMIT OF NORMAL","0.4","DERIVED","CLINICAL STUDY SPONSOR"],["CDISCPILOT01","LB","01-701-1015","LBSEQ","      54","LBTMSHI","LAB RESULT/UPPER LIMIT OF NORMAL","0.3","DERIVED","CLINICAL STUDY SPONSOR"],["CDISCPILOT01","LB","01-701-1015","LBSEQ","      55","LBTMSHI","LAB RESULT/UPPER LIMIT OF NORMAL","0.9","DERIVED","CLINICAL STUDY SPONSOR"],["CDISCPILOT01","LB","01-701-1015","LBSEQ","      56","LBTMSHI","LAB RESULT/UPPER LIMIT OF NORMAL","0.9","DERIVED","CLINICAL STUDY SPONSOR"],["CDISCPILOT01","LB","01-701-1015","LBSEQ","      57","LBTMSHI","LAB RESULT/UPPER LIMIT OF NORMAL","0.8","DERIVED","CLINICAL STUDY SPONSOR"],["CDISCPILOT01","LB","01-701-1015","LBSEQ","      59","LBTMSHI","LAB RESULT/UPPER LIMIT OF NORMAL","0.7","DERIVED","CLINICAL STUDY SPONSOR"],["CDISCPILOT01","LB","01-701-1015","LBSEQ","      60","LBTMSHI","LAB RESULT/UPPER LIMIT OF NORMAL","0.8","DERIVED","CLINICAL STUDY SPONSOR"],["CDISCPILOT01","LB","01-701-1015","LBSEQ","      61","LBTMSHI","LAB RESULT/UPPER LIMIT OF NORMAL","0.9","DERIVED","CLINICAL STUDY SPONSOR"],["CDISCPILOT01","LB","01-701-1015","LBSEQ","      62","LBTMSHI","LAB RESULT/UPPER LIMIT OF NORMAL","0.8","DERIVED","CLINICAL STUDY SPONSOR"],["CDISCPILOT01","LB","01-701-1015","LBSEQ","      63","LBTMSHI","LAB RESULT/UPPER LIMIT OF NORMAL","0.3","DERIVED","CLINICAL STUDY SPONSOR"],["CDISCPILOT01","LB","01-701-1015","LBSEQ","      64","LBTMSHI","LAB RESULT/UPPER LIMIT OF NORMAL","1.0","DERIVED","CLINICAL STUDY SPONSOR"],["CDISCPILOT01","LB","01-701-1015","LBSEQ","      65","LBTMSHI","LAB RESULT/UPPER LIMIT OF NORMAL","0.6","DERIVED","CLINICAL STUDY SPONSOR"],["CDISCPILOT01","LB","01-701-1015","LBSEQ","      66","LBTMSHI","LAB RESULT/UPPER LIMIT OF NORMAL","0.8","DERIVED","CLINICAL STUDY SPONSOR"],["CDISCPILOT01","LB","01-701-1015","LBSEQ","      67","LBTMSHI","LAB RESULT/UPPER LIMIT OF NORMAL","0.8","DERIVED","CLINICAL STUDY SPONSOR"],["CDISCPILOT01","LB","01-701-1015","LBSEQ","      68","LBTMSHI","LAB RESULT/UPPER LIMIT OF NORMAL","1.0","DERIVED","CLINICAL STUDY SPONSOR"],["CDISCPILOT01","LB","01-701-1015","LBSEQ","      69","LBTMSHI","LAB RESULT/UPPER LIMIT OF NORMAL","1.0","DERIVED","CLINICAL STUDY SPONSOR"],["CDISCPILOT01","LB","01-701-1015","LBSEQ","      70","LBTMSHI","LAB RESULT/UPPER LIMIT OF NORMAL","1.0","DERIVED","CLINICAL STUDY SPONSOR"],["CDISCPILOT01","LB","01-701-1015","LBSEQ","      71","LBTMSHI","LAB RESULT/UPPER LIMIT OF NORMAL","0.7","DERIVED","CLINICAL STUDY SPONSOR"],["CDISCPILOT01","LB","01-701-1015","LBSEQ","      73","LBTMSHI","LAB RESULT/UPPER LIMIT OF NORMAL","0.5","DERIVED","CLINICAL STUDY SPONSOR"],["CDISCPILOT01","LB","01-701-1015","LBSEQ","      74","LBTMSHI","LAB RESULT/UPPER LIMIT OF NORMAL","0.8","DERIVED","CLINICAL STUDY SPONSOR"],["CDISCPILOT01","LB","01-701-1015","LBSEQ","      75","LBTMSHI","LAB RESULT/UPPER LIMIT OF NORMAL","0.4","DERIVED","CLINICAL STUDY SPONSOR"],["CDISCPILOT01","LB","01-701-1015","LBSEQ","      76","LBTMSHI","LAB RESULT/UPPER LIMIT OF NORMAL","0.5","DERIVED","CLINICAL STUDY SPONSOR"],["CDISCPILOT01","LB","01-701-1015","LBSEQ","      77","LBTMSHI","LAB RESULT/UPPER LIMIT OF NORMAL","0.6","DERIVED","CLINICAL STUDY SPONSOR"],["CDISCPILOT01","LB","01-701-1015","LBSEQ","      78","LBTMSHI","LAB RESULT/UPPER LIMIT OF NORMAL","0.1","DERIVED","CLINICAL STUDY SPONSOR"],["CDISCPILOT01","LB","01-701-1015","LBSEQ","      79","LBTMSHI","LAB RESULT/UPPER LIMIT OF NORMAL","0.3","DERIVED","CLINICAL STUDY SPONSOR"],["CDISCPILOT01","LB","01-701-1015","LBSEQ","      80","LBTMSHI","LAB RESULT/UPPER LIMIT OF NORMAL","0.3","DERIVED","CLINICAL STUDY SPONSOR"],["CDISCPILOT01","LB","01-701-1015","LBSEQ","      81","LBTMSHI","LAB RESULT/UPPER LIMIT OF NORMAL","0.9","DERIVED","CLINICAL STUDY SPONSOR"],["CDISCPILOT01","LB","01-701-1015","LBSEQ","      82","LBTMSHI","LAB RESULT/UPPER LIMIT OF NORMAL","0.6","DERIVED","CLINICAL STUDY SPONSOR"],["CDISCPILOT01","LB","01-701-1015","LBSEQ","      83","LBTMSHI","LAB RESULT/UPPER LIMIT OF NORMAL","0.3","DERIVED","CLINICAL STUDY SPONSOR"],["CDISCPILOT01","LB","01-701-1015","LBSEQ","      84","LBTMSHI","LAB RESULT/UPPER LIMIT OF NORMAL","1.0","DERIVED","CLINICAL STUDY SPONSOR"],["CDISCPILOT01","LB","01-701-1015","LBSEQ","      85","LBTMSHI","LAB RESULT/UPPER LIMIT OF NORMAL","0.6","DERIVED","CLINICAL STUDY SPONSOR"],["CDISCPILOT01","LB","01-701-1015","LBSEQ","      86","LBTMSHI","LAB RESULT/UPPER LIMIT OF NORMAL","0.1","DERIVED","CLINICAL STUDY SPONSOR"],["CDISCPILOT01","LB","01-701-1015","LBSEQ","      87","LBTMSHI","LAB RESULT/UPPER LIMIT OF NORMAL","0.3","DERIVED","CLINICAL STUDY SPONSOR"],["CDISCPILOT01","LB","01-701-1015","LBSEQ","      88","LBTMSHI","LAB RESULT/UPPER LIMIT OF NORMAL","0.3","DERIVED","CLINICAL STUDY SPONSOR"],["CDISCPILOT01","LB","01-701-1015","LBSEQ","      89","LBTMSHI","LAB RESULT/UPPER LIMIT OF NORMAL","0.8","DERIVED","CLINICAL STUDY SPONSOR"],["CDISCPILOT01","LB","01-701-1015","LBSEQ","      90","LBTMSHI","LAB RESULT/UPPER LIMIT OF NORMAL","0.8","DERIVED","CLINICAL STUDY SPONSOR"],["CDISCPILOT01","LB","01-701-1015","LBSEQ","      91","LBTMSHI","LAB RESULT/UPPER LIMIT OF NORMAL","0.8","DERIVED","CLINICAL STUDY SPONSOR"],["CDISCPILOT01","LB","01-701-1015","LBSEQ","      92","LBTMSHI","LAB RESULT/UPPER LIMIT OF NORMAL","0.6","DERIVED","CLINICAL STUDY SPONSOR"],["CDISCPILOT01","LB","01-701-1015","LBSEQ","      93","LBTMSHI","LAB RESULT/UPPER LIMIT OF NORMAL","0.8","DERIVED","CLINICAL STUDY SPONSOR"],["CDISCPILOT01","LB","01-701-1015","LBSEQ","      94","LBTMSHI","LAB RESULT/UPPER LIMIT OF NORMAL","0.9","DERIVED","CLINICAL STUDY SPONSOR"],["CDISCPILOT01","LB","01-701-1015","LBSEQ","      95","LBTMSHI","LAB RESULT/UPPER LIMIT OF NORMAL","0.8","DERIVED","CLINICAL STUDY SPONSOR"],["CDISCPILOT01","LB","01-701-1015","LBSEQ","      96","LBTMSHI","LAB RESULT/UPPER LIMIT OF NORMAL","0.3","DERIVED","CLINICAL STUDY SPONSOR"],["CDISCPILOT01","LB","01-701-1015","LBSEQ","      97","LBTMSHI","LAB RESULT/UPPER LIMIT OF NORMAL","1.0","DERIVED","CLINICAL STUDY SPONSOR"],["CDISCPILOT01","LB","01-701-1015","LBSEQ","      98","LBTMSHI","LAB RESULT/UPPER LIMIT OF NORMAL","0.7","DERIVED","CLINICAL STUDY SPONSOR"],["CDISCPILOT01","LB","01-701-1015","LBSEQ","      99","LBTMSHI","LAB RESULT/UPPER LIMIT OF NORMAL","0.6","DERIVED","CLINICAL STUDY SPONSOR"],["CDISCPILOT01","LB","01-701-1015","LBSEQ","     100","LBTMSHI","LAB RESULT/UPPER LIMIT OF NORMAL","0.9","DERIVED","CLINICAL STUDY SPONSOR"],["CDISCPILOT01","LB","01-701-1015","LBSEQ","     101","LBTMSHI","LAB RESULT/UPPER LIMIT OF NORMAL","0.9","DERIVED","CLINICAL STUDY SPONSOR"],["CDISCPILOT01","LB","01-701-1015","LBSEQ","     102","LBTMSHI","LAB RESULT/UPPER LIMIT OF NORMAL","0.6","DERIVED","CLINICAL STUDY SPONSOR"],["CDISCPILOT01","LB","01-701-1015","LBSEQ","     103","LBTMSHI","LAB RESULT/UPPER LIMIT OF NORMAL","0.4","DERIVED","CLINICAL STUDY SPONSOR"],["CDISCPILOT01","LB","01-701-1015","LBSEQ","     104","LBTMSHI","LAB RESULT/UPPER LIMIT OF NORMAL","0.8","DERIVED","CLINICAL STUDY SPONSOR"],["CDISCPILOT01","LB","01-701-1015","LBSEQ","     105","LBTMSHI","LAB RESULT/UPPER LIMIT OF NORMAL","0.4","DERIVED","CLINICAL STUDY SPONSOR"],["CDISCPILOT01","LB","01-701-1015","LBSEQ","     106","LBTMSHI","LAB RESULT/UPPER LIMIT OF NORMAL","0.8","DERIVED","CLINICAL STUDY SPONSOR"],["CDISCPILOT01","LB","01-701-1015","LBSEQ","     107","LBTMSHI","LAB RESULT/UPPER LIMIT OF NORMAL","0.8","DERIVED","CLINICAL STUDY SPONSOR"],["CDISCPILOT01","LB","01-701-1015","LBSEQ","     108","LBTMSHI","LAB RESULT/UPPER LIMIT OF NORMAL","0.2","DERIVED","CLINICAL STUDY SPONSOR"],["CDISCPILOT01","LB","01-701-1015","LBSEQ","     109","LBTMSHI","LAB RESULT/UPPER LIMIT OF NORMAL","0.2","DERIVED","CLINICAL STUDY SPONSOR"],["CDISCPILOT01","LB","01-701-1015","LBSEQ","     110","LBTMSHI","LAB RESULT/UPPER LIMIT OF NORMAL","0.5","DERIVED","CLINICAL STUDY SPONSOR"],["CDISCPILOT01","LB","01-701-1015","LBSEQ","     111","LBTMSHI","LAB RESULT/UPPER LIMIT OF NORMAL","0.9","DERIVED","CLINICAL STUDY SPONSOR"],["CDISCPILOT01","LB","01-701-1015","LBSEQ","     112","LBTMSHI","LAB RESULT/UPPER LIMIT OF NORMAL","0.7","DERIVED","CLINICAL STUDY SPONSOR"],["CDISCPILOT01","LB","01-701-1015","LBSEQ","     113","LBTMSHI","LAB RESULT/UPPER LIMIT OF NORMAL","0.4","DERIVED","CLINICAL STUDY SPONSOR"],["CDISCPILOT01","LB","01-701-1015","LBSEQ","     114","LBTMSHI","LAB RESULT/UPPER LIMIT OF NORMAL","0.9","DERIVED","CLINICAL STUDY SPONSOR"],["CDISCPILOT01","LB","01-701-1015","LBSEQ","     115","LBTMSHI","LAB RESULT/UPPER LIMIT OF NORMAL","0.7","DERIVED","CLINICAL STUDY SPONSOR"],["CDISCPILOT01","LB","01-701-1015","LBSEQ","     116","LBTMSHI","LAB RESULT/UPPER LIMIT OF NORMAL","0.1","DERIVED","CLINICAL STUDY SPONSOR"],["CDISCPILOT01","LB","01-701-1015","LBSEQ","     117","LBTMSHI","LAB RESULT/UPPER LIMIT OF NORMAL","0.3","DERIVED","CLINICAL STUDY SPONSOR"],["CDISCPILOT01","LB","01-701-1015","LBSEQ","     118","LBTMSHI","LAB RESULT/UPPER LIMIT OF NORMAL","0.4","DERIVED","CLINICAL STUDY SPONSOR"],["CDISCPILOT01","LB","01-701-1015","LBSEQ","     119","LBTMSHI","LAB RESULT/UPPER LIMIT OF NORMAL","0.8","DERIVED","CLINICAL STUDY SPONSOR"],["CDISCPILOT01","LB","01-701-1015","LBSEQ","     120","LBTMSHI","LAB RESULT/UPPER LIMIT OF NORMAL","0.9","DERIVED","CLINICAL STUDY SPONSOR"],["CDISCPILOT01","LB","01-701-1015","LBSEQ","     121","LBTMSHI","LAB RESULT/UPPER LIMIT OF NORMAL","0.9","DERIVED","CLINICAL STUDY SPONSOR"],["CDISCPILOT01","LB","01-701-1015","LBSEQ","     122","LBTMSHI","LAB RESULT/UPPER LIMIT OF NORMAL","0.5","DERIVED","CLINICAL STUDY SPONSOR"],["CDISCPILOT01","LB","01-701-1015","LBSEQ","     123","LBTMSHI","LAB RESULT/UPPER LIMIT OF NORMAL","0.8","DERIVED","CLINICAL STUDY SPONSOR"],["CDISCPILOT01","LB","01-701-1015","LBSEQ","     124","LBTMSHI","LAB RESULT/UPPER LIMIT OF NORMAL","0.9","DERIVED","CLINICAL STUDY SPONSOR"],["CDISCPILOT01","LB","01-701-1015","LBSEQ","     125","LBTMSHI","LAB RESULT/UPPER LIMIT OF NORMAL","0.8","DERIVED","CLINICAL STUDY SPONSOR"],["CDISCPILOT01","LB","01-701-1015","LBSEQ","     126","LBTMSHI","LAB RESULT/UPPER LIMIT OF NORMAL","0.3","DERIVED","CLINICAL STUDY SPONSOR"],["CDISCPILOT01","LB","01-701-1015","LBSEQ","     127","LBTMSHI","LAB RESULT/UPPER LIMIT OF NORMAL","1.0","DERIVED","CLINICAL STUDY SPONSOR"],["CDISCPILOT01","LB","01-701-1015","LBSEQ","     128","LBTMSHI","LAB RESULT/UPPER LIMIT OF NORMAL","0.7","DERIVED","CLINICAL STUDY SPONSOR"],["CDISCPILOT01","LB","01-701-1015","LBSEQ","     129","LBTMSHI","LAB RESULT/UPPER LIMIT OF NORMAL","0.6","DERIVED","CLINICAL STUDY SPONSOR"],["CDISCPILOT01","LB","01-701-1015","LBSEQ","     130","LBTMSHI","LAB RESULT/UPPER LIMIT OF NORMAL","0.9","DERIVED","CLINICAL STUDY SPONSOR"],["CDISCPILOT01","LB","01-701-1015","LBSEQ","     131","LBTMSHI","LAB RESULT/UPPER LIMIT OF NORMAL","0.9","DERIVED","CLINICAL STUDY SPONSOR"],["CDISCPILOT01","LB","01-701-1015","LBSEQ","     132","LBTMSHI","LAB RESULT/UPPER LIMIT OF NORMAL","0.6","DERIVED","CLINICAL STUDY SPONSOR"],["CDISCPILOT01","LB","01-701-1015","LBSEQ","     133","LBTMSHI","LAB RESULT/UPPER LIMIT OF NORMAL","0.4","DERIVED","CLINICAL STUDY SPONSOR"],["CDISCPILOT01","LB","01-701-1015","LBSEQ","     134","LBTMSHI","LAB RESULT/UPPER LIMIT OF NORMAL","0.8","DERIVED","CLINICAL STUDY SPONSOR"],["CDISCPILOT01","LB","01-701-1015","LBSEQ","     135","LBTMSHI","LAB RESULT/UPPER LIMIT OF NORMAL","0.4","DERIVED","CLINICAL STUDY SPONSOR"],["CDISCPILOT01","LB","01-701-1015","LBSEQ","     136","LBTMSHI","LAB RESULT/UPPER LIMIT OF NORMAL","0.6","DERIVED","CLINICAL STUDY SPONSOR"],["CDISCPILOT01","LB","01-701-1015","LBSEQ","     137","LBTMSHI","LAB RESULT/UPPER LIMIT OF NORMAL","0.6","DERIVED","CLINICAL STUDY SPONSOR"],["CDISCPILOT01","LB","01-701-1015","LBSEQ","     138","LBTMSHI","LAB RESULT/UPPER LIMIT OF NORMAL","0.3","DERIVED","CLINICAL STUDY SPONSOR"],["CDISCPILOT01","LB","01-701-1015","LBSEQ","     139","LBTMSHI","LAB RESULT/UPPER LIMIT OF NORMAL","0.4","DERIVED","CLINICAL STUDY SPONSOR"],["CDISCPILOT01","LB","01-701-1015","LBSEQ","     140","LBTMSHI","LAB RESULT/UPPER LIMIT OF NORMAL","0.5","DERIVED","CLINICAL STUDY SPONSOR"],["CDISCPILOT01","LB","01-701-1015","LBSEQ","     141","LBTMSHI","LAB RESULT/UPPER LIMIT OF NORMAL","0.9","DERIVED","CLINICAL STUDY SPONSOR"],["CDISCPILOT01","LB","01-701-1015","LBSEQ","     142","LBTMSHI","LAB RESULT/UPPER LIMIT OF NORMAL","0.7","DERIVED","CLINICAL STUDY SPONSOR"],["CDISCPILOT01","LB","01-701-1015","LBSEQ","     143","LBTMSHI","LAB RESULT/UPPER LIMIT OF NORMAL","0.3","DERIVED","CLINICAL STUDY SPONSOR"],["CDISCPILOT01","LB","01-701-1015","LBSEQ","     144","LBTMSHI","LAB RESULT/UPPER LIMIT OF NORMAL","0.9","DERIVED","CLINICAL STUDY SPONSOR"],["CDISCPILOT01","LB","01-701-1015","LBSEQ","     145","LBTMSHI","LAB RESULT/UPPER LIMIT OF NORMAL","0.7","DERIVED","CLINICAL STUDY SPONSOR"],["CDISCPILOT01","LB","01-701-1015","LBSEQ","     146","LBTMSHI","LAB RESULT/UPPER LIMIT OF NORMAL","0.2","DERIVED","CLINICAL STUDY SPONSOR"],["CDISCPILOT01","LB","01-701-1015","LBSEQ","     147","LBTMSHI","LAB RESULT/UPPER LIMIT OF NORMAL","0.3","DERIVED","CLINICAL STUDY SPONSOR"],["CDISCPILOT01","LB","01-701-1015","LBSEQ","     148","LBTMSHI","LAB RESULT/UPPER LIMIT OF NORMAL","0.3","DERIVED","CLINICAL STUDY SPONSOR"],["CDISCPILOT01","LB","01-701-1015","LBSEQ","     149","LBTMSHI","LAB RESULT/UPPER LIMIT OF NORMAL","0.9","DERIVED","CLINICAL STUDY SPONSOR"],["CDISCPILOT01","LB","01-701-1015","LBSEQ","     150","LBTMSHI","LAB RESULT/UPPER LIMIT OF NORMAL","0.9","DERIVED","CLINICAL STUDY SPONSOR"],["CDISCPILOT01","LB","01-701-1015","LBSEQ","     151","LBTMSHI","LAB RESULT/UPPER LIMIT OF NORMAL","0.8","DERIVED","CLINICAL STUDY SPONSOR"],["CDISCPILOT01","LB","01-701-1015","LBSEQ","     152","LBTMSHI","LAB RESULT/UPPER LIMIT OF NORMAL","0.7","DERIVED","CLINICAL STUDY SPONSOR"],["CDISCPILOT01","LB","01-701-1015","LBSEQ","     153","LBTMSHI","LAB RESULT/UPPER LIMIT OF NORMAL","0.8","DERIVED","CLINICAL STUDY SPONSOR"],["CDISCPILOT01","LB","01-701-1015","LBSEQ","     154","LBTMSHI","LAB RESULT/UPPER LIMIT OF NORMAL","0.9","DERIVED","CLINICAL STUDY SPONSOR"],["CDISCPILOT01","LB","01-701-1015","LBSEQ","     155","LBTMSHI","LAB RESULT/UPPER LIMIT OF NORMAL","0.8","DERIVED","CLINICAL STUDY SPONSOR"],["CDISCPILOT01","LB","01-701-1015","LBSEQ","     156","LBTMSHI","LAB RESULT/UPPER LIMIT OF NORMAL","0.3","DERIVED","CLINICAL STUDY SPONSOR"],["CDISCPILOT01","LB","01-701-1015","LBSEQ","     157","LBTMSHI","LAB RESULT/UPPER LIMIT OF NORMAL","1.0","DERIVED","CLINICAL STUDY SPONSOR"],["CDISCPILOT01","LB","01-701-1015","LBSEQ","     158","LBTMSHI","LAB RESULT/UPPER LIMIT OF NORMAL","0.7","DERIVED","CLINICAL STUDY SPONSOR"],["CDISCPILOT01","LB","01-701-1015","LBSEQ","     159","LBTMSHI","LAB RESULT/UPPER LIMIT OF NORMAL","0.7","DERIVED","CLINICAL STUDY SPONSOR"],["CDISCPILOT01","LB","01-701-1015","LBSEQ","     160","LBTMSHI","LAB RESULT/UPPER LIMIT OF NORMAL","0.9","DERIVED","CLINICAL STUDY SPONSOR"],["CDISCPILOT01","LB","01-701-1015","LBSEQ","     161","LBTMSHI","LAB RESULT/UPPER LIMIT OF NORMAL","0.9","DERIVED","CLINICAL STUDY SPONSOR"],["CDISCPILOT01","LB","01-701-1015","LBSEQ","     162","LBTMSHI","LAB RESULT/UPPER LIMIT OF NORMAL","0.6","DERIVED","CLINICAL STUDY SPONSOR"],["CDISCPILOT01","LB","01-701-1015","LBSEQ","     163","LBTMSHI","LAB RESULT/UPPER LIMIT OF NORMAL","0.5","DERIVED","CLINICAL STUDY SPONSOR"],["CDISCPILOT01","LB","01-701-1015","LBSEQ","     164","LBTMSHI","LAB RESULT/UPPER LIMIT OF NORMAL","0.8","DERIVED","CLINICAL STUDY SPONSOR"],["CDISCPILOT01","LB","01-701-1015","LBSEQ","     165","LBTMSHI","LAB RESULT/UPPER LIMIT OF NORMAL","0.5","DERIVED","CLINICAL STUDY SPONSOR"],["CDISCPILOT01","LB","01-701-1015","LBSEQ","     166","LBTMSHI","LAB RESULT/UPPER LIMIT OF NORMAL","0.8","DERIVED","CLINICAL STUDY SPONSOR"],["CDISCPILOT01","LB","01-701-1015","LBSEQ","     167","LBTMSHI","LAB RESULT/UPPER LIMIT OF NORMAL","0.6","DERIVED","CLINICAL STUDY SPONSOR"],["CDISCPILOT01","LB","01-701-1015","LBSEQ","     168","LBTMSHI","LAB RESULT/UPPER LIMIT OF NORMAL","0.2","DERIVED","CLINICAL STUDY SPONSOR"],["CDISCPILOT01","LB","01-701-1015","LBSEQ","     169","LBTMSHI","LAB RESULT/UPPER LIMIT OF NORMAL","0.3","DERIVED","CLINICAL STUDY SPONSOR"],["CDISCPILOT01","LB","01-701-1015","LBSEQ","     170","LBTMSHI","LAB RESULT/UPPER LIMIT OF NORMAL","0.4","DERIVED","CLINICAL STUDY SPONSOR"],["CDISCPILOT01","LB","01-701-1015","LBSEQ","     171","LBTMSHI","LAB RESULT/UPPER LIMIT OF NORMAL","0.9","DERIVED","CLINICAL STUDY SPONSOR"],["CDISCPILOT01","LB","01-701-1015","LBSEQ","     172","LBTMSHI","LAB RESULT/UPPER LIMIT OF NORMAL","0.7","DERIVED","CLINICAL STUDY SPONSOR"],["CDISCPILOT01","LB","01-701-1015","LBSEQ","     173","LBTMSHI","LAB RESULT/UPPER LIMIT OF NORMAL","0.3","DERIVED","CLINICAL STUDY SPONSOR"],["CDISCPILOT01","LB","01-701-1015","LBSEQ","     174","LBTMSHI","LAB RESULT/UPPER LIMIT OF NORMAL","0.9","DERIVED","CLINICAL STUDY SPONSOR"],["CDISCPILOT01","LB","01-701-1015","LBSEQ","     176","LBTMSHI","LAB RESULT/UPPER LIMIT OF NORMAL","0.6","DERIVED","CLINICAL STUDY SPONSOR"],["CDISCPILOT01","LB","01-701-1015","LBSEQ","     177","LBTMSHI","LAB RESULT/UPPER LIMIT OF NORMAL","0.2","DERIVED","CLINICAL STUDY SPONSOR"],["CDISCPILOT01","LB","01-701-1015","LBSEQ","     178","LBTMSHI","LAB RESULT/UPPER LIMIT OF NORMAL","0.5","DERIVED","CLINICAL STUDY SPONSOR"],["CDISCPILOT01","LB","01-701-1015","LBSEQ","     179","LBTMSHI","LAB RESULT/UPPER LIMIT OF NORMAL","0.3","DERIVED","CLINICAL STUDY SPONSOR"],["CDISCPILOT01","LB","01-701-1015","LBSEQ","     180","LBTMSHI","LAB RESULT/UPPER LIMIT OF NORMAL","0.9","DERIVED","CLINICAL STUDY SPONSOR"],["CDISCPILOT01","LB","01-701-1015","LBSEQ","     181","LBTMSHI","LAB RESULT/UPPER LIMIT OF NORMAL","0.8","DERIVED","CLINICAL STUDY SPONSOR"],["CDISCPILOT01","LB","01-701-1015","LBSEQ","     182","LBTMSHI","LAB RESULT/UPPER LIMIT OF NORMAL","0.7","DERIVED","CLINICAL STUDY SPONSOR"],["CDISCPILOT01","LB","01-701-1015","LBSEQ","     184","LBTMSHI","LAB RESULT/UPPER LIMIT OF NORMAL","0.7","DERIVED","CLINICAL STUDY SPONSOR"],["CDISCPILOT01","LB","01-701-1015","LBSEQ","     185","LBTMSHI","LAB RESULT/UPPER LIMIT OF NORMAL","0.8","DERIVED","CLINICAL STUDY SPONSOR"],["CDISCPILOT01","LB","01-701-1015","LBSEQ","     186","LBTMSHI","LAB RESULT/UPPER LIMIT OF NORMAL","0.9","DERIVED","CLINICAL STUDY SPONSOR"],["CDISCPILOT01","LB","01-701-1015","LBSEQ","     187","LBTMSHI","LAB RESULT/UPPER LIMIT OF NORMAL","0.8","DERIVED","CLINICAL STUDY SPONSOR"],["CDISCPILOT01","LB","01-701-1015","LBSEQ","     188","LBTMSHI","LAB RESULT/UPPER LIMIT OF NORMAL","0.3","DERIVED","CLINICAL STUDY SPONSOR"],["CDISCPILOT01","LB","01-701-1015","LBSEQ","     189","LBTMSHI","LAB RESULT/UPPER LIMIT OF NORMAL","1.0","DERIVED","CLINICAL STUDY SPONSOR"],["CDISCPILOT01","LB","01-701-1015","LBSEQ","     190","LBTMSHI","LAB RESULT/UPPER LIMIT OF NORMAL","0.6","DERIVED","CLINICAL STUDY SPONSOR"],["CDISCPILOT01","LB","01-701-1015","LBSEQ","     191","LBTMSHI","LAB RESULT/UPPER LIMIT OF NORMAL","0.7","DERIVED","CLINICAL STUDY SPONSOR"],["CDISCPILOT01","LB","01-701-1015","LBSEQ","     192","LBTMSHI","LAB RESULT/UPPER LIMIT OF NORMAL","0.7","DERIVED","CLINICAL STUDY SPONSOR"],["CDISCPILOT01","LB","01-701-1015","LBSEQ","     193","LBTMSHI","LAB RESULT/UPPER LIMIT OF NORMAL","0.9","DERIVED","CLINICAL STUDY SPONSOR"],["CDISCPILOT01","LB","01-701-1015","LBSEQ","     194","LBTMSHI","LAB RESULT/UPPER LIMIT OF NORMAL","0.9","DERIVED","CLINICAL STUDY SPONSOR"],["CDISCPILOT01","LB","01-701-1015","LBSEQ","     195","LBTMSHI","LAB RESULT/UPPER LIMIT OF NORMAL","1.0","DERIVED","CLINICAL STUDY SPONSOR"],["CDISCPILOT01","LB","01-701-1015","LBSEQ","     196","LBTMSHI","LAB RESULT/UPPER LIMIT OF NORMAL","0.6","DERIVED","CLINICAL STUDY SPONSOR"],["CDISCPILOT01","LB","01-701-1015","LBSEQ","     198","LBTMSHI","LAB RESULT/UPPER LIMIT OF NORMAL","0.5","DERIVED","CLINICAL STUDY SPONSOR"],["CDISCPILOT01","LB","01-701-1015","LBSEQ","     199","LBTMSHI","LAB RESULT/UPPER LIMIT OF NORMAL","0.8","DERIVED","CLINICAL STUDY SPONSOR"],["CDISCPILOT01","LB","01-701-1015","LBSEQ","     200","LBTMSHI","LAB RESULT/UPPER LIMIT OF NORMAL","0.4","DERIVED","CLINICAL STUDY SPONSOR"],["CDISCPILOT01","LB","01-701-1015","LBSEQ","     201","LBTMSHI","LAB RESULT/UPPER LIMIT OF NORMAL","0.5","DERIVED","CLINICAL STUDY SPONSOR"],["CDISCPILOT01","LB","01-701-1015","LBSEQ","     202","LBTMSHI","LAB RESULT/UPPER LIMIT OF NORMAL","0.7","DERIVED","CLINICAL STUDY SPONSOR"],["CDISCPILOT01","LB","01-701-1015","LBSEQ","     203","LBTMSHI","LAB RESULT/UPPER LIMIT OF NORMAL","0.2","DERIVED","CLINICAL STUDY SPONSOR"],["CDISCPILOT01","LB","01-701-1015","LBSEQ","     204","LBTMSHI","LAB RESULT/UPPER LIMIT OF NORMAL","0.3","DERIVED","CLINICAL STUDY SPONSOR"],["CDISCPILOT01","LB","01-701-1015","LBSEQ","     205","LBTMSHI","LAB RESULT/UPPER LIMIT OF NORMAL","0.4","DERIVED","CLINICAL STUDY SPONSOR"],["CDISCPILOT01","LB","01-701-1015","LBSEQ","     206","LBTMSHI","LAB RESULT/UPPER LIMIT OF NORMAL","0.9","DERIVED","CLINICAL STUDY SPONSOR"],["CDISCPILOT01","LB","01-701-1015","LBSEQ","     207","LBTMSHI","LAB RESULT/UPPER LIMIT OF NORMAL","0.7","DERIVED","CLINICAL STUDY SPONSOR"],["CDISCPILOT01","LB","01-701-1015","LBSEQ","     208","LBTMSHI","LAB RESULT/UPPER LIMIT OF NORMAL","0.3","DERIVED","CLINICAL STUDY SPONSOR"],["CDISCPILOT01","LB","01-701-1015","LBSEQ","     209","LBTMSHI","LAB RESULT/UPPER LIMIT OF NORMAL","0.9","DERIVED","CLINICAL STUDY SPONSOR"],["CDISCPILOT01","LB","01-701-1015","LBSEQ","     210","LBTMSHI","LAB RESULT/UPPER LIMIT OF NORMAL","0.7","DERIVED","CLINICAL STUDY SPONSOR"],["CDISCPILOT01","LB","01-701-1015","LBSEQ","     211","LBTMSHI","LAB RESULT/UPPER LIMIT OF NORMAL","0.2","DERIVED","CLINICAL STUDY SPONSOR"],["CDISCPILOT01","LB","01-701-1015","LBSEQ","     212","LBTMSHI","LAB RESULT/UPPER LIMIT OF NORMAL","0.3","DERIVED","CLINICAL STUDY SPONSOR"],["CDISCPILOT01","LB","01-701-1015","LBSEQ","     213","LBTMSHI","LAB RESULT/UPPER LIMIT OF NORMAL","0.3","DERIVED","CLINICAL STUDY SPONSOR"],["CDISCPILOT01","LB","01-701-1015","LBSEQ","     214","LBTMSHI","LAB RESULT/UPPER LIMIT OF NORMAL","0.9","DERIVED","CLINICAL STUDY SPONSOR"],["CDISCPILOT01","LB","01-701-1015","LBSEQ","     215","LBTMSHI","LAB RESULT/UPPER LIMIT OF NORMAL","0.9","DERIVED","CLINICAL STUDY SPONSOR"],["CDISCPILOT01","LB","01-701-1015","LBSEQ","     216","LBTMSHI","LAB RESULT/UPPER LIMIT OF NORMAL","0.8","DERIVED","CLINICAL STUDY SPONSOR"],["CDISCPILOT01","LB","01-701-1015","LBSEQ","     217","LBTMSHI","LAB RESULT/UPPER LIMIT OF NORMAL","0.7","DERIVED","CLINICAL STUDY SPONSOR"],["CDISCPILOT01","LB","01-701-1015","LBSEQ","     218","LBTMSHI","LAB RESULT/UPPER LIMIT OF NORMAL","0.8","DERIVED","CLINICAL STUDY SPONSOR"],["CDISCPILOT01","LB","01-701-1015","LBSEQ","     219","LBTMSHI","LAB RESULT/UPPER LIMIT OF NORMAL","0.9","DERIVED","CLINICAL STUDY SPONSOR"],["CDISCPILOT01","LB","01-701-1015","LBSEQ","     220","LBTMSHI","LAB RESULT/UPPER LIMIT OF NORMAL","0.8","DERIVED","CLINICAL STUDY SPONSOR"],["CDISCPILOT01","LB","01-701-1015","LBSEQ","     221","LBTMSHI","LAB RESULT/UPPER LIMIT OF NORMAL","0.4","DERIVED","CLINICAL STUDY SPONSOR"],["CDISCPILOT01","LB","01-701-1015","LBSEQ","     222","LBTMSHI","LAB RESULT/UPPER LIMIT OF NORMAL","1.0","DERIVED","CLINICAL STUDY SPONSOR"],["CDISCPILOT01","LB","01-701-1015","LBSEQ","     223","LBTMSHI","LAB RESULT/UPPER LIMIT OF NORMAL","0.8","DERIVED","CLINICAL STUDY SPONSOR"],["CDISCPILOT01","LB","01-701-1015","LBSEQ","     224","LBTMSHI","LAB RESULT/UPPER LIMIT OF NORMAL","0.7","DERIVED","CLINICAL STUDY SPONSOR"],["CDISCPILOT01","LB","01-701-1015","LBSEQ","     225","LBTMSHI","LAB RESULT/UPPER LIMIT OF NORMAL","0.9","DERIVED","CLINICAL STUDY SPONSOR"],["CDISCPILOT01","LB","01-701-1015","LBSEQ","     226","LBTMSHI","LAB RESULT/UPPER LIMIT OF NORMAL","0.9","DERIVED","CLINICAL STUDY SPONSOR"],["CDISCPILOT01","LB","01-701-1015","LBSEQ","     227","LBTMSHI","LAB RESULT/UPPER LIMIT OF NORMAL","0.6","DERIVED","CLINICAL STUDY SPONSOR"],["CDISCPILOT01","LB","01-701-1015","LBSEQ","     228","LBTMSHI","LAB RESULT/UPPER LIMIT OF NORMAL","0.5","DERIVED","CLINICAL STUDY SPONSOR"],["CDISCPILOT01","LB","01-701-1015","LBSEQ","     229","LBTMSHI","LAB RESULT/UPPER LIMIT OF NORMAL","0.8","DERIVED","CLINICAL STUDY SPONSOR"],["CDISCPILOT01","LB","01-701-1015","LBSEQ","     230","LBTMSHI","LAB RESULT/UPPER LIMIT OF NORMAL","0.4","DERIVED","CLINICAL STUDY SPONSOR"],["CDISCPILOT01","LB","01-701-1015","LBSEQ","     231","LBTMSHI","LAB RESULT/UPPER LIMIT OF NORMAL","0.6","DERIVED","CLINICAL STUDY SPONSOR"],["CDISCPILOT01","LB","01-701-1015","LBSEQ","     232","LBTMSHI","LAB RESULT/UPPER LIMIT OF NORMAL","0.6","DERIVED","CLINICAL STUDY SPONSOR"],["CDISCPILOT01","LB","01-701-1015","LBSEQ","     233","LBTMSHI","LAB RESULT/UPPER LIMIT OF NORMAL","0.2","DERIVED","CLINICAL STUDY SPONSOR"],["CDISCPILOT01","LB","01-701-1015","LBSEQ","     234","LBTMSHI","LAB RESULT/UPPER LIMIT OF NORMAL","0.3","DERIVED","CLINICAL STUDY SPONSOR"],["CDISCPILOT01","LB","01-701-1015","LBSEQ","     235","LBTMSHI","LAB RESULT/UPPER LIMIT OF NORMAL","0.5","DERIVED","CLINICAL STUDY SPONSOR"],["CDISCPILOT01","LB","01-701-1015","LBSEQ","     236","LBTMSHI","LAB RESULT/UPPER LIMIT OF NORMAL","0.8","DERIVED","CLINICAL STUDY SPONSOR"],["CDISCPILOT01","LB","01-701-1015","LBSEQ","     237","LBTMSHI","LAB RESULT/UPPER LIMIT OF NORMAL","0.7","DERIVED","CLINICAL STUDY SPONSOR"],["CDISCPILOT01","LB","01-701-1015","LBSEQ","     238","LBTMSHI","LAB RESULT/UPPER LIMIT OF NORMAL","0.3","DERIVED","CLINICAL STUDY SPONSOR"],["CDISCPILOT01","LB","01-701-1015","LBSEQ","     239","LBTMSHI","LAB RESULT/UPPER LIMIT OF NORMAL","1.0","DERIVED","CLINICAL STUDY SPONSOR"],["CDISCPILOT01","LB","01-701-1015","LBSEQ","     240","LBTMSHI","LAB RESULT/UPPER LIMIT OF NORMAL","0.6","DERIVED","CLINICAL STUDY SPONSOR"],["CDISCPILOT01","LB","01-701-1015","LBSEQ","     241","LBTMSHI","LAB RESULT/UPPER LIMIT OF NORMAL","0.1","DERIVED","CLINICAL STUDY SPONSOR"],["CDISCPILOT01","LB","01-701-1015","LBSEQ","     242","LBTMSHI","LAB RESULT/UPPER LIMIT OF NORMAL","0.3","DERIVED","CLINICAL STUDY SPONSOR"],["CDISCPILOT01","LB","01-701-1015","LBSEQ","     243","LBTMSHI","LAB RESULT/UPPER LIMIT OF NORMAL","0.4","DERIVED","CLINICAL STUDY SPONSOR"],["CDISCPILOT01","LB","01-701-1015","LBSEQ","     244","LBTMSHI","LAB RESULT/UPPER LIMIT OF NORMAL","0.8","DERIVED","CLINICAL STUDY SPONSOR"],["CDISCPILOT01","LB","01-701-1015","LBSEQ","     245","LBTMSHI","LAB RESULT/UPPER LIMIT OF NORMAL","0.9","DERIVED","CLINICAL STUDY SPONSOR"],["CDISCPILOT01","LB","01-701-1015","LBSEQ","     246","LBTMSHI","LAB RESULT/UPPER LIMIT OF NORMAL","0.8","DERIVED","CLINICAL STUDY SPONSOR"],["CDISCPILOT01","LB","01-701-1015","LBSEQ","     247","LBTMSHI","LAB RESULT/UPPER LIMIT OF NORMAL","0.6","DERIVED","CLINICAL STUDY SPONSOR"],["CDISCPILOT01","LB","01-701-1015","LBSEQ","     248","LBTMSHI","LAB RESULT/UPPER LIMIT OF NORMAL","0.8","DERIVED","CLINICAL STUDY SPONSOR"],["CDISCPILOT01","LB","01-701-1015","LBSEQ","     249","LBTMSHI","LAB RESULT/UPPER LIMIT OF NORMAL","0.9","DERIVED","CLINICAL STUDY SPONSOR"],["CDISCPILOT01","LB","01-701-1015","LBSEQ","     250","LBTMSHI","LAB RESULT/UPPER LIMIT OF NORMAL","0.8","DERIVED","CLINICAL STUDY SPONSOR"],["CDISCPILOT01","LB","01-701-1015","LBSEQ","     251","LBTMSHI","LAB RESULT/UPPER LIMIT OF NORMAL","0.3","DERIVED","CLINICAL STUDY SPONSOR"],["CDISCPILOT01","LB","01-701-1015","LBSEQ","     252","LBTMSHI","LAB RESULT/UPPER LIMIT OF NORMAL","1.0","DERIVED","CLINICAL STUDY SPONSOR"],["CDISCPILOT01","LB","01-701-1015","LBSEQ","     253","LBTMSHI","LAB RESULT/UPPER LIMIT OF NORMAL","0.7","DERIVED","CLINICAL STUDY SPONSOR"],["CDISCPILOT01","LB","01-701-1015","LBSEQ","     254","LBTMSHI","LAB RESULT/UPPER LIMIT OF NORMAL","0.6","DERIVED","CLINICAL STUDY SPONSOR"],["CDISCPILOT01","LB","01-701-1015","LBSEQ","     255","LBTMSHI","LAB RESULT/UPPER LIMIT OF NORMAL","0.9","DERIVED","CLINICAL STUDY SPONSOR"],["CDISCPILOT01","LB","01-701-1015","LBSEQ","     256","LBTMSHI","LAB RESULT/UPPER LIMIT OF NORMAL","0.9","DERIVED","CLINICAL STUDY SPONSOR"],["CDISCPILOT01","LB","01-701-1015","LBSEQ","     257","LBTMSHI","LAB RESULT/UPPER LIMIT OF NORMAL","0.6","DERIVED","CLINICAL STUDY SPONSOR"],["CDISCPILOT01","LB","01-701-1015","LBSEQ","     258","LBTMSHI","LAB RESULT/UPPER LIMIT OF NORMAL","0.4","DERIVED","CLINICAL STUDY SPONSOR"],["CDISCPILOT01","LB","01-701-1015","LBSEQ","     259","ENDPOINT","ENDPOINT VALUE FLAG","Y","DERIVED","CLINICAL STUDY SPONSOR"],["CDISCPILOT01","LB","01-701-1015","LBSEQ","     259","LBTMSHI","LAB RESULT/UPPER LIMIT OF NORMAL","0.8","DERIVED","CLINICAL STUDY SPONSOR"],["CDISCPILOT01","LB","01-701-1015","LBSEQ","     260","ENDPOINT","ENDPOINT VALUE FLAG","Y","DERIVED","CLINICAL STUDY SPONSOR"],["CDISCPILOT01","LB","01-701-1015","LBSEQ","     260","LBTMSHI","LAB RESULT/UPPER LIMIT OF NORMAL","0.4","DERIVED","CLINICAL STUDY SPONSOR"],["CDISCPILOT01","LB","01-701-1015","LBSEQ","     261","ENDPOINT","ENDPOINT VALUE FLAG","Y","DERIVED","CLINICAL STUDY SPONSOR"],["CDISCPILOT01","LB","01-701-1015","LBSEQ","     261","LBTMSHI","LAB RESULT/UPPER LIMIT OF NORMAL","0.7","DERIVED","CLINICAL STUDY SPONSOR"],["CDISCPILOT01","LB","01-701-1015","LBSEQ","     262","ENDPOINT","ENDPOINT VALUE FLAG","Y","DERIVED","CLINICAL STUDY SPONSOR"],["CDISCPILOT01","LB","01-701-1015","LBSEQ","     262","LBTMSHI","LAB RESULT/UPPER LIMIT OF NORMAL","0.7","DERIVED","CLINICAL STUDY SPONSOR"],["CDISCPILOT01","LB","01-701-1015","LBSEQ","     263","ENDPOINT","ENDPOINT VALUE FLAG","Y","DERIVED","CLINICAL STUDY SPONSOR"],["CDISCPILOT01","LB","01-701-1015","LBSEQ","     263","LBTMSHI","LAB RESULT/UPPER LIMIT OF NORMAL","0.2","DERIVED","CLINICAL STUDY SPONSOR"],["CDISCPILOT01","LB","01-701-1015","LBSEQ","     264","ENDPOINT","ENDPOINT VALUE FLAG","Y","DERIVED","CLINICAL STUDY SPONSOR"],["CDISCPILOT01","LB","01-701-1015","LBSEQ","     264","LBTMSHI","LAB RESULT/UPPER LIMIT OF NORMAL","0.3","DERIVED","CLINICAL STUDY SPONSOR"],["CDISCPILOT01","LB","01-701-1015","LBSEQ","     265","ENDPOINT","ENDPOINT VALUE FLAG","Y","DERIVED","CLINICAL STUDY SPONSOR"],["CDISCPILOT01","LB","01-701-1015","LBSEQ","     265","LBTMSHI","LAB RESULT/UPPER LIMIT OF NORMAL","0.5","DERIVED","CLINICAL STUDY SPONSOR"],["CDISCPILOT01","LB","01-701-1015","LBSEQ","     266","ENDPOINT","ENDPOINT VALUE FLAG","Y","DERIVED","CLINICAL STUDY SPONSOR"],["CDISCPILOT01","LB","01-701-1015","LBSEQ","     266","LBTMSHI","LAB RESULT/UPPER LIMIT OF NORMAL","0.9","DERIVED","CLINICAL STUDY SPONSOR"],["CDISCPILOT01","LB","01-701-1015","LBSEQ","     267","ENDPOINT","ENDPOINT VALUE FLAG","Y","DERIVED","CLINICAL STUDY SPONSOR"],["CDISCPILOT01","LB","01-701-1015","LBSEQ","     267","LBTMSHI","LAB RESULT/UPPER LIMIT OF NORMAL","0.7","DERIVED","CLINICAL STUDY SPONSOR"],["CDISCPILOT01","LB","01-701-1015","LBSEQ","     268","ENDPOINT","ENDPOINT VALUE FLAG","Y","DERIVED","CLINICAL STUDY SPONSOR"],["CDISCPILOT01","LB","01-701-1015","LBSEQ","     268","LBTMSHI","LAB RESULT/UPPER LIMIT OF NORMAL","0.2","DERIVED","CLINICAL STUDY SPONSOR"],["CDISCPILOT01","LB","01-701-1015","LBSEQ","     269","ENDPOINT","ENDPOINT VALUE FLAG","Y","DERIVED","CLINICAL STUDY SPONSOR"],["CDISCPILOT01","LB","01-701-1015","LBSEQ","     269","LBTMSHI","LAB RESULT/UPPER LIMIT OF NORMAL","0.9","DERIVED","CLINICAL STUDY SPONSOR"],["CDISCPILOT01","LB","01-701-1015","LBSEQ","     271","ENDPOINT","ENDPOINT VALUE FLAG","Y","DERIVED","CLINICAL STUDY SPONSOR"],["CDISCPILOT01","LB","01-701-1015","LBSEQ","     271","LBTMSHI","LAB RESULT/UPPER LIMIT OF NORMAL","0.6","DERIVED","CLINICAL STUDY SPONSOR"],["CDISCPILOT01","LB","01-701-1015","LBSEQ","     272","ENDPOINT","ENDPOINT VALUE FLAG","Y","DERIVED","CLINICAL STUDY SPONSOR"],["CDISCPILOT01","LB","01-701-1015","LBSEQ","     272","LBTMSHI","LAB RESULT/UPPER LIMIT OF NORMAL","0.2","DERIVED","CLINICAL STUDY SPONSOR"],["CDISCPILOT01","LB","01-701-1015","LBSEQ","     273","ENDPOINT","ENDPOINT VALUE FLAG","Y","DERIVED","CLINICAL STUDY SPONSOR"],["CDISCPILOT01","LB","01-701-1015","LBSEQ","     273","LBTMSHI","LAB RESULT/UPPER LIMIT OF NORMAL","0.4","DERIVED","CLINICAL STUDY SPONSOR"],["CDISCPILOT01","LB","01-701-1015","LBSEQ","     274","ENDPOINT","ENDPOINT VALUE FLAG","Y","DERIVED","CLINICAL STUDY SPONSOR"],["CDISCPILOT01","LB","01-701-1015","LBSEQ","     274","LBTMSHI","LAB RESULT/UPPER LIMIT OF NORMAL","0.3","DERIVED","CLINICAL STUDY SPONSOR"],["CDISCPILOT01","LB","01-701-1015","LBSEQ","     275","ENDPOINT","ENDPOINT VALUE FLAG","Y","DERIVED","CLINICAL STUDY SPONSOR"],["CDISCPILOT01","LB","01-701-1015","LBSEQ","     275","LBTMSHI","LAB RESULT/UPPER LIMIT OF NORMAL","0.9","DERIVED","CLINICAL STUDY SPONSOR"],["CDISCPILOT01","LB","01-701-1015","LBSEQ","     276","ENDPOINT","ENDPOINT VALUE FLAG","Y","DERIVED","CLINICAL STUDY SPONSOR"],["CDISCPILOT01","LB","01-701-1015","LBSEQ","     276","LBTMSHI","LAB RESULT/UPPER LIMIT OF NORMAL","0.9","DERIVED","CLINICAL STUDY SPONSOR"],["CDISCPILOT01","LB","01-701-1015","LBSEQ","     277","ENDPOINT","ENDPOINT VALUE FLAG","Y","DERIVED","CLINICAL STUDY SPONSOR"],["CDISCPILOT01","LB","01-701-1015","LBSEQ","     277","LBTMSHI","LAB RESULT/UPPER LIMIT OF NORMAL","0.8","DERIVED","CLINICAL STUDY SPONSOR"],["CDISCPILOT01","LB","01-701-1015","LBSEQ","     279","ENDPOINT","ENDPOINT VALUE FLAG","Y","DERIVED","CLINICAL STUDY SPONSOR"],["CDISCPILOT01","LB","01-701-1015","LBSEQ","     279","LBTMSHI","LAB RESULT/UPPER LIMIT OF NORMAL","0.9","DERIVED","CLINICAL STUDY SPONSOR"],["CDISCPILOT01","LB","01-701-1015","LBSEQ","     280","ENDPOINT","ENDPOINT VALUE FLAG","Y","DERIVED","CLINICAL STUDY SPONSOR"],["CDISCPILOT01","LB","01-701-1015","LBSEQ","     280","LBTMSHI","LAB RESULT/UPPER LIMIT OF NORMAL","0.8","DERIVED","CLINICAL STUDY SPONSOR"],["CDISCPILOT01","LB","01-701-1015","LBSEQ","     281","ENDPOINT","ENDPOINT VALUE FLAG","Y","DERIVED","CLINICAL STUDY SPONSOR"],["CDISCPILOT01","LB","01-701-1015","LBSEQ","     281","LBTMSHI","LAB RESULT/UPPER LIMIT OF NORMAL","0.8","DERIVED","CLINICAL STUDY SPONSOR"],["CDISCPILOT01","LB","01-701-1015","LBSEQ","     282","ENDPOINT","ENDPOINT VALUE FLAG","Y","DERIVED","CLINICAL STUDY SPONSOR"],["CDISCPILOT01","LB","01-701-1015","LBSEQ","     282","LBTMSHI","LAB RESULT/UPPER LIMIT OF NORMAL","0.8","DERIVED","CLINICAL STUDY SPONSOR"],["CDISCPILOT01","LB","01-701-1015","LBSEQ","     283","ENDPOINT","ENDPOINT VALUE FLAG","Y","DERIVED","CLINICAL STUDY SPONSOR"],["CDISCPILOT01","LB","01-701-1015","LBSEQ","     283","LBTMSHI","LAB RESULT/UPPER LIMIT OF NORMAL","0.3","DERIVED","CLINICAL STUDY SPONSOR"],["CDISCPILOT01","LB","01-701-1015","LBSEQ","     284","ENDPOINT","ENDPOINT VALUE FLAG","Y","DERIVED","CLINICAL STUDY SPONSOR"],["CDISCPILOT01","LB","01-701-1015","LBSEQ","     284","LBTMSHI","LAB RESULT/UPPER LIMIT OF NORMAL","1.0","DERIVED","CLINICAL STUDY SPONSOR"],["CDISCPILOT01","LB","01-701-1015","LBSEQ","     285","ENDPOINT","ENDPOINT VALUE FLAG","Y","DERIVED","CLINICAL STUDY SPONSOR"],["CDISCPILOT01","LB","01-701-1015","LBSEQ","     285","LBTMSHI","LAB RESULT/UPPER LIMIT OF NORMAL","0.6","DERIVED","CLINICAL STUDY SPONSOR"],["CDISCPILOT01","LB","01-701-1015","LBSEQ","     286","ENDPOINT","ENDPOINT VALUE FLAG","Y","DERIVED","CLINICAL STUDY SPONSOR"],["CDISCPILOT01","LB","01-701-1015","LBSEQ","     286","LBTMSHI","LAB RESULT/UPPER LIMIT OF NORMAL","0.8","DERIVED","CLINICAL STUDY SPONSOR"],["CDISCPILOT01","LB","01-701-1015","LBSEQ","     287","ENDPOINT","ENDPOINT VALUE FLAG","Y","DERIVED","CLINICAL STUDY SPONSOR"],["CDISCPILOT01","LB","01-701-1015","LBSEQ","     287","LBTMSHI","LAB RESULT/UPPER LIMIT OF NORMAL","0.7","DERIVED","CLINICAL STUDY SPONSOR"],["CDISCPILOT01","LB","01-701-1015","LBSEQ","     288","ENDPOINT","ENDPOINT VALUE FLAG","Y","DERIVED","CLINICAL STUDY SPONSOR"],["CDISCPILOT01","LB","01-701-1015","LBSEQ","     288","LBTMSHI","LAB RESULT/UPPER LIMIT OF NORMAL","0.8","DERIVED","CLINICAL STUDY SPONSOR"],["CDISCPILOT01","LB","01-701-1015","LBSEQ","     289","ENDPOINT","ENDPOINT VALUE FLAG","Y","DERIVED","CLINICAL STUDY SPONSOR"],["CDISCPILOT01","LB","01-701-1015","LBSEQ","     289","LBTMSHI","LAB RESULT/UPPER LIMIT OF NORMAL","1.0","DERIVED","CLINICAL STUDY SPONSOR"],["CDISCPILOT01","LB","01-701-1015","LBSEQ","     290","ENDPOINT","ENDPOINT VALUE FLAG","Y","DERIVED","CLINICAL STUDY SPONSOR"],["CDISCPILOT01","LB","01-701-1015","LBSEQ","     290","LBTMSHI","LAB RESULT/UPPER LIMIT OF NORMAL","1.0","DERIVED","CLINICAL STUDY SPONSOR"],["CDISCPILOT01","LB","01-701-1015","LBSEQ","     291","ENDPOINT","ENDPOINT VALUE FLAG","Y","DERIVED","CLINICAL STUDY SPONSOR"],["CDISCPILOT01","LB","01-701-1015","LBSEQ","     291","LBTMSHI","LAB RESULT/UPPER LIMIT OF NORMAL","0.7","DERIVED","CLINICAL STUDY SPONSOR"],["CDISCPILOT01","LB","01-701-1015","LBSEQ","     293","ENDPOINT","ENDPOINT VALUE FLAG","Y","DERIVED","CLINICAL STUDY SPONSOR"],["CDISCPILOT01","LB","01-701-1015","LBSEQ","     293","LBTMSHI","LAB RESULT/UPPER LIMIT OF NORMAL","0.7","DERIVED","CLINICAL STUDY SPONSOR"],["CDISCPILOT01","LB","01-701-1015","LBSEQ","     294","LBTMSHI","LAB RESULT/UPPER LIMIT OF NORMAL","0.8","DERIVED","CLINICAL STUDY SPONSOR"],["CDISCPILOT01","LB","01-701-1015","LBSEQ","     295","LBTMSHI","LAB RESULT/UPPER LIMIT OF NORMAL","0.4","DERIVED","CLINICAL STUDY SPONSOR"],["CDISCPILOT01","LB","01-701-1015","LBSEQ","     296","LBTMSHI","LAB RESULT/UPPER LIMIT OF NORMAL","0.7","DERIVED","CLINICAL STUDY SPONSOR"],["CDISCPILOT01","LB","01-701-1015","LBSEQ","     297","LBTMSHI","LAB RESULT/UPPER LIMIT OF NORMAL","0.6","DERIVED","CLINICAL STUDY SPONSOR"],["CDISCPILOT01","LB","01-701-1015","LBSEQ","     298","LBTMSHI","LAB RESULT/UPPER LIMIT OF NORMAL","0.2","DERIVED","CLINICAL STUDY SPONSOR"],["CDISCPILOT01","LB","01-701-1015","LBSEQ","     299","LBTMSHI","LAB RESULT/UPPER LIMIT OF NORMAL","0.2","DERIVED","CLINICAL STUDY SPONSOR"],["CDISCPILOT01","LB","01-701-1015","LBSEQ","     300","LBTMSHI","LAB RESULT/UPPER LIMIT OF NORMAL","0.5","DERIVED","CLINICAL STUDY SPONSOR"],["CDISCPILOT01","LB","01-701-1015","LBSEQ","     301","LBTMSHI","LAB RESULT/UPPER LIMIT OF NORMAL","0.9","DERIVED","CLINICAL STUDY SPONSOR"],["CDISCPILOT01","LB","01-701-1015","LBSEQ","     302","LBTMSHI","LAB RESULT/UPPER LIMIT OF NORMAL","0.7","DERIVED","CLINICAL STUDY SPONSOR"],["CDISCPILOT01","LB","01-701-1015","LBSEQ","     303","LBTMSHI","LAB RESULT/UPPER LIMIT OF NORMAL","0.3","DERIVED","CLINICAL STUDY SPONSOR"],["CDISCPILOT01","LB","01-701-1015","LBSEQ","     304","LBTMSHI","LAB RESULT/UPPER LIMIT OF NORMAL","0.9","DERIVED","CLINICAL STUDY SPONSOR"],["CDISCPILOT01","LB","01-701-1015","LBSEQ","     305","LBTMSHI","LAB RESULT/UPPER LIMIT OF NORMAL","0.7","DERIVED","CLINICAL STUDY SPONSOR"],["CDISCPILOT01","LB","01-701-1015","LBSEQ","     306","LBTMSHI","LAB RESULT/UPPER LIMIT OF NORMAL","0.1","DERIVED","CLINICAL STUDY SPONSOR"],["CDISCPILOT01","LB","01-701-1015","LBSEQ","     307","LBTMSHI","LAB RESULT/UPPER LIMIT OF NORMAL","0.3","DERIVED","CLINICAL STUDY SPONSOR"],["CDISCPILOT01","LB","01-701-1015","LBSEQ","     308","LBTMSHI","LAB RESULT/UPPER LIMIT OF NORMAL","0.4","DERIVED","CLINICAL STUDY SPONSOR"],["CDISCPILOT01","LB","01-701-1015","LBSEQ","     309","LBTMSHI","LAB RESULT/UPPER LIMIT OF NORMAL","0.9","DERIVED","CLINICAL STUDY SPONSOR"],["CDISCPILOT01","LB","01-701-1015","LBSEQ","     310","LBTMSHI","LAB RESULT/UPPER LIMIT OF NORMAL","0.9","DERIVED","CLINICAL STUDY SPONSOR"],["CDISCPILOT01","LB","01-701-1015","LBSEQ","     311","LBTMSHI","LAB RESULT/UPPER LIMIT OF NORMAL","0.8","DERIVED","CLINICAL STUDY SPONSOR"],["CDISCPILOT01","LB","01-701-1015","LBSEQ","     312","LBTMSHI","LAB RESULT/UPPER LIMIT OF NORMAL","0.7","DERIVED","CLINICAL STUDY SPONSOR"],["CDISCPILOT01","LB","01-701-1015","LBSEQ","     313","LBTMSHI","LAB RESULT/UPPER LIMIT OF NORMAL","0.8","DERIVED","CLINICAL STUDY SPONSOR"],["CDISCPILOT01","LB","01-701-1015","LBSEQ","     314","LBTMSHI","LAB RESULT/UPPER LIMIT OF NORMAL","0.8","DERIVED","CLINICAL STUDY SPONSOR"],["CDISCPILOT01","LB","01-701-1015","LBSEQ","     315","LBTMSHI","LAB RESULT/UPPER LIMIT OF NORMAL","0.8","DERIVED","CLINICAL STUDY SPONSOR"],["CDISCPILOT01","LB","01-701-1015","LBSEQ","     316","LBTMSHI","LAB RESULT/UPPER LIMIT OF NORMAL","0.3","DERIVED","CLINICAL STUDY SPONSOR"],["CDISCPILOT01","LB","01-701-1015","LBSEQ","     317","LBTMSHI","LAB RESULT/UPPER LIMIT OF NORMAL","1.0","DERIVED","CLINICAL STUDY SPONSOR"],["CDISCPILOT01","LB","01-701-1015","LBSEQ","     318","LBTMSHI","LAB RESULT/UPPER LIMIT OF NORMAL","0.8","DERIVED","CLINICAL STUDY SPONSOR"],["CDISCPILOT01","LB","01-701-1015","LBSEQ","     319","LBTMSHI","LAB RESULT/UPPER LIMIT OF NORMAL","0.8","DERIVED","CLINICAL STUDY SPONSOR"],["CDISCPILOT01","LB","01-701-1015","LBSEQ","     320","LBTMSHI","LAB RESULT/UPPER LIMIT OF NORMAL","0.9","DERIVED","CLINICAL STUDY SPONSOR"],["CDISCPILOT01","LB","01-701-1015","LBSEQ","     321","LBTMSHI","LAB RESULT/UPPER LIMIT OF NORMAL","1.0","DERIVED","CLINICAL STUDY SPONSOR"],["CDISCPILOT01","LB","01-701-1015","LBSEQ","     322","LBTMSHI","LAB RESULT/UPPER LIMIT OF NORMAL","0.7","DERIVED","CLINICAL STUDY SPONSOR"],["CDISCPILOT01","LB","01-701-1015","LBSEQ","     323","LBTMSHI","LAB RESULT/UPPER LIMIT OF NORMAL","0.5","DERIVED","CLINICAL STUDY SPONSOR"],["CDISCPILOT01","LB","01-701-1023","LBSEQ","       1","LBTMSHI","LAB RESULT/UPPER LIMIT OF NORMAL","0.8","DERIVED","CLINICAL STUDY SPONSOR"],["CDISCPILOT01","LB","01-701-1023","LBSEQ","       2","LBTMSHI","LAB RESULT/UPPER LIMIT OF NORMAL","0.9","DERIVED","CLINICAL STUDY SPONSOR"],["CDISCPILOT01","LB","01-701-1023","LBSEQ","       3","LBTMSHI","LAB RESULT/UPPER LIMIT OF NORMAL","0.5","DERIVED","CLINICAL STUDY SPONSOR"],["CDISCPILOT01","LB","01-701-1023","LBSEQ","       4","LBTMSHI","LAB RESULT/UPPER LIMIT OF NORMAL","0.6","DERIVED","CLINICAL STUDY SPONSOR"],["CDISCPILOT01","LB","01-701-1023","LBSEQ","       5","LBTMSHI","LAB RESULT/UPPER LIMIT OF NORMAL","0.3","DERIVED","CLINICAL STUDY SPONSOR"],["CDISCPILOT01","LB","01-701-1023","LBSEQ","       6","LBTMSHI","LAB RESULT/UPPER LIMIT OF NORMAL","0.6","DERIVED","CLINICAL STUDY SPONSOR"],["CDISCPILOT01","LB","01-701-1023","LBSEQ","       7","LBTMSHI","LAB RESULT/UPPER LIMIT OF NORMAL","0.7","DERIVED","CLINICAL STUDY SPONSOR"],["CDISCPILOT01","LB","01-701-1023","LBSEQ","       8","LBTMSHI","LAB RESULT/UPPER LIMIT OF NORMAL","1.0","DERIVED","CLINICAL STUDY SPONSOR"],["CDISCPILOT01","LB","01-701-1023","LBSEQ","       9","LBTMSHI","LAB RESULT/UPPER LIMIT OF NORMAL","0.9","DERIVED","CLINICAL STUDY SPONSOR"],["CDISCPILOT01","LB","01-701-1023","LBSEQ","      10","LBTMSHI","LAB RESULT/UPPER LIMIT OF NORMAL","0.4","DERIVED","CLINICAL STUDY SPONSOR"],["CDISCPILOT01","LB","01-701-1023","LBSEQ","      11","LBTMSHI","LAB RESULT/UPPER LIMIT OF NORMAL","0.9","DERIVED","CLINICAL STUDY SPONSOR"],["CDISCPILOT01","LB","01-701-1023","LBSEQ","      13","LBTMSHI","LAB RESULT/UPPER LIMIT OF NORMAL","0.9","DERIVED","CLINICAL STUDY SPONSOR"],["CDISCPILOT01","LB","01-701-1023","LBSEQ","      14","LBTMSHI","LAB RESULT/UPPER LIMIT OF NORMAL","0.2","DERIVED","CLINICAL STUDY SPONSOR"],["CDISCPILOT01","LB","01-701-1023","LBSEQ","      15","LBTMSHI","LAB RESULT/UPPER LIMIT OF NORMAL","0.4","DERIVED","CLINICAL STUDY SPONSOR"],["CDISCPILOT01","LB","01-701-1023","LBSEQ","      16","LBTMSHI","LAB RESULT/UPPER LIMIT OF NORMAL","0.4","DERIVED","CLINICAL STUDY SPONSOR"],["CDISCPILOT01","LB","01-701-1023","LBSEQ","      17","LBTMSHI","LAB RESULT/UPPER LIMIT OF NORMAL","1.0","DERIVED","CLINICAL STUDY SPONSOR"],["CDISCPILOT01","LB","01-701-1023","LBSEQ","      18","LBTMSHI","LAB RESULT/UPPER LIMIT OF NORMAL","1.0","DERIVED","CLINICAL STUDY SPONSOR"],["CDISCPILOT01","LB","01-701-1023","LBSEQ","      19","LBTMSHI","LAB RESULT/UPPER LIMIT OF NORMAL","0.9","DERIVED","CLINICAL STUDY SPONSOR"],["CDISCPILOT01","LB","01-701-1023","LBSEQ","      21","LBTMSHI","LAB RESULT/UPPER LIMIT OF NORMAL","0.6","DERIVED","CLINICAL STUDY SPONSOR"],["CDISCPILOT01","LB","01-701-1023","LBSEQ","      22","LBTMSHI","LAB RESULT/UPPER LIMIT OF NORMAL","0.9","DERIVED","CLINICAL STUDY SPONSOR"],["CDISCPILOT01","LB","01-701-1023","LBSEQ","      23","LBTMSHI","LAB RESULT/UPPER LIMIT OF NORMAL","0.9","DERIVED","CLINICAL STUDY SPONSOR"],["CDISCPILOT01","LB","01-701-1023","LBSEQ","      24","LBTMSHI","LAB RESULT/UPPER LIMIT OF NORMAL","0.9","DERIVED","CLINICAL STUDY SPONSOR"],["CDISCPILOT01","LB","01-701-1023","LBSEQ","      25","LBTMSHI","LAB RESULT/UPPER LIMIT OF NORMAL","0.7","DERIVED","CLINICAL STUDY SPONSOR"],["CDISCPILOT01","LB","01-701-1023","LBSEQ","      26","LBTMSHI","LAB RESULT/UPPER LIMIT OF NORMAL","1.0","DERIVED","CLINICAL STUDY SPONSOR"],["CDISCPILOT01","LB","01-701-1023","LBSEQ","      27","LBTMSHI","LAB RESULT/UPPER LIMIT OF NORMAL","0.6","DERIVED","CLINICAL STUDY SPONSOR"],["CDISCPILOT01","LB","01-701-1023","LBSEQ","      28","LBTMSHI","LAB RESULT/UPPER LIMIT OF NORMAL","0.8","DERIVED","CLINICAL STUDY SPONSOR"],["CDISCPILOT01","LB","01-701-1023","LBSEQ","      29","LBTMSHI","LAB RESULT/UPPER LIMIT OF NORMAL","0.6","DERIVED","CLINICAL STUDY SPONSOR"],["CDISCPILOT01","LB","01-701-1023","LBSEQ","      30","LBTMSHI","LAB RESULT/UPPER LIMIT OF NORMAL","0.9","DERIVED","CLINICAL STUDY SPONSOR"],["CDISCPILOT01","LB","01-701-1023","LBSEQ","      31","LBTMSHI","LAB RESULT/UPPER LIMIT OF NORMAL","0.9","DERIVED","CLINICAL STUDY SPONSOR"],["CDISCPILOT01","LB","01-701-1023","LBSEQ","      32","LBTMSHI","LAB RESULT/UPPER LIMIT OF NORMAL","1.0","DERIVED","CLINICAL STUDY SPONSOR"],["CDISCPILOT01","LB","01-701-1023","LBSEQ","      33","LBTMSHI","LAB RESULT/UPPER LIMIT OF NORMAL","0.3","DERIVED","CLINICAL STUDY SPONSOR"],["CDISCPILOT01","LB","01-701-1023","LBSEQ","      34","LBTMSHI","LAB RESULT/UPPER LIMIT OF NORMAL","0.9","DERIVED","CLINICAL STUDY SPONSOR"],["CDISCPILOT01","LB","01-701-1023","LBSEQ","      36","LBTMSHI","LAB RESULT/UPPER LIMIT OF NORMAL","0.6","DERIVED","CLINICAL STUDY SPONSOR"],["CDISCPILOT01","LB","01-701-1023","LBSEQ","      37","LBTMSHI","LAB RESULT/UPPER LIMIT OF NORMAL","0.8","DERIVED","CLINICAL STUDY SPONSOR"],["CDISCPILOT01","LB","01-701-1023","LBSEQ","      38","LBTMSHI","LAB RESULT/UPPER LIMIT OF NORMAL","0.7","DERIVED","CLINICAL STUDY SPONSOR"],["CDISCPILOT01","LB","01-701-1023","LBSEQ","      39","LBTMSHI","LAB RESULT/UPPER LIMIT OF NORMAL","0.8","DERIVED","CLINICAL STUDY SPONSOR"],["CDISCPILOT01","LB","01-701-1023","LBSEQ","      40","LBTMSHI","LAB RESULT/UPPER LIMIT OF NORMAL","0.7","DERIVED","CLINICAL STUDY SPONSOR"],["CDISCPILOT01","LB","01-701-1023","LBSEQ","      41","LBTMSHI","LAB RESULT/UPPER LIMIT OF NORMAL","0.7","DERIVED","CLINICAL STUDY SPONSOR"],["CDISCPILOT01","LB","01-701-1023","LBSEQ","      42","LBTMSHI","LAB RESULT/UPPER LIMIT OF NORMAL","0.2","DERIVED","CLINICAL STUDY SPONSOR"],["CDISCPILOT01","LB","01-701-1023","LBSEQ","      43","LBTMSHI","LAB RESULT/UPPER LIMIT OF NORMAL","0.3","DERIVED","CLINICAL STUDY SPONSOR"],["CDISCPILOT01","LB","01-701-1023","LBSEQ","      44","LBTMSHI","LAB RESULT/UPPER LIMIT OF NORMAL","0.9","DERIVED","CLINICAL STUDY SPONSOR"],["CDISCPILOT01","LB","01-701-1023","LBSEQ","      45","LBTMSHI","LAB RESULT/UPPER LIMIT OF NORMAL","0.9","DERIVED","CLINICAL STUDY SPONSOR"],["CDISCPILOT01","LB","01-701-1023","LBSEQ","      46","LBTMSHI","LAB RESULT/UPPER LIMIT OF NORMAL","0.8","DERIVED","CLINICAL STUDY SPONSOR"],["CDISCPILOT01","LB","01-701-1023","LBSEQ","      47","LBTMSHI","LAB RESULT/UPPER LIMIT OF NORMAL","0.4","DERIVED","CLINICAL STUDY SPONSOR"],["CDISCPILOT01","LB","01-701-1023","LBSEQ","      48","LBTMSHI","LAB RESULT/UPPER LIMIT OF NORMAL","1.0","DERIVED","CLINICAL STUDY SPONSOR"],["CDISCPILOT01","LB","01-701-1023","LBSEQ","      50","LBTMSHI","LAB RESULT/UPPER LIMIT OF NORMAL","0.9","DERIVED","CLINICAL STUDY SPONSOR"],["CDISCPILOT01","LB","01-701-1023","LBSEQ","      51","LBTMSHI","LAB RESULT/UPPER LIMIT OF NORMAL","0.1","DERIVED","CLINICAL STUDY SPONSOR"],["CDISCPILOT01","LB","01-701-1023","LBSEQ","      52","LBTMSHI","LAB RESULT/UPPER LIMIT OF NORMAL","0.4","DERIVED","CLINICAL STUDY SPONSOR"],["CDISCPILOT01","LB","01-701-1023","LBSEQ","      53","LBTMSHI","LAB RESULT/UPPER LIMIT OF NORMAL","0.4","DERIVED","CLINICAL STUDY SPONSOR"],["CDISCPILOT01","LB","01-701-1023","LBSEQ","      54","LBTMSHI","LAB RESULT/UPPER LIMIT OF NORMAL","0.9","DERIVED","CLINICAL STUDY SPONSOR"],["CDISCPILOT01","LB","01-701-1023","LBSEQ","      55","LBTMSHI","LAB RESULT/UPPER LIMIT OF NORMAL","0.9","DERIVED","CLINICAL STUDY SPONSOR"],["CDISCPILOT01","LB","01-701-1023","LBSEQ","      56","LBTMSHI","LAB RESULT/UPPER LIMIT OF NORMAL","0.9","DERIVED","CLINICAL STUDY SPONSOR"],["CDISCPILOT01","LB","01-701-1023","LBSEQ","      58","LBTMSHI","LAB RESULT/UPPER LIMIT OF NORMAL","0.8","DERIVED","CLINICAL STUDY SPONSOR"],["CDISCPILOT01","LB","01-701-1023","LBSEQ","      59","LBTMSHI","LAB RESULT/UPPER LIMIT OF NORMAL","0.9","DERIVED","CLINICAL STUDY SPONSOR"],["CDISCPILOT01","LB","01-701-1023","LBSEQ","      60","LBTMSHI","LAB RESULT/UPPER LIMIT OF NORMAL","0.9","DERIVED","CLINICAL STUDY SPONSOR"],["CDISCPILOT01","LB","01-701-1023","LBSEQ","      61","LBTMSHI","LAB RESULT/UPPER LIMIT OF NORMAL","1.0","DERIVED","CLINICAL STUDY SPONSOR"],["CDISCPILOT01","LB","01-701-1023","LBSEQ","      62","LBTMSHI","LAB RESULT/UPPER LIMIT OF NORMAL","0.7","DERIVED","CLINICAL STUDY SPONSOR"],["CDISCPILOT01","LB","01-701-1023","LBSEQ","      63","LBTMSHI","LAB RESULT/UPPER LIMIT OF NORMAL","1.0","DERIVED","CLINICAL STUDY SPONSOR"],["CDISCPILOT01","LB","01-701-1023","LBSEQ","      64","LBTMSHI","LAB RESULT/UPPER LIMIT OF NORMAL","0.6","DERIVED","CLINICAL STUDY SPONSOR"],["CDISCPILOT01","LB","01-701-1023","LBSEQ","      65","LBTMSHI","LAB RESULT/UPPER LIMIT OF NORMAL","0.7","DERIVED","CLINICAL STUDY SPONSOR"],["CDISCPILOT01","LB","01-701-1023","LBSEQ","      66","LBTMSHI","LAB RESULT/UPPER LIMIT OF NORMAL","0.6","DERIVED","CLINICAL STUDY SPONSOR"],["CDISCPILOT01","LB","01-701-1023","LBSEQ","      67","LBTMSHI","LAB RESULT/UPPER LIMIT OF NORMAL","0.9","DERIVED","CLINICAL STUDY SPONSOR"],["CDISCPILOT01","LB","01-701-1023","LBSEQ","      68","LBTMSHI","LAB RESULT/UPPER LIMIT OF NORMAL","0.8","DERIVED","CLINICAL STUDY SPONSOR"],["CDISCPILOT01","LB","01-701-1023","LBSEQ","      69","LBTMSHI","LAB RESULT/UPPER LIMIT OF NORMAL","1.0","DERIVED","CLINICAL STUDY SPONSOR"],["CDISCPILOT01","LB","01-701-1023","LBSEQ","      70","LBTMSHI","LAB RESULT/UPPER LIMIT OF NORMAL","0.8","DERIVED","CLINICAL STUDY SPONSOR"],["CDISCPILOT01","LB","01-701-1023","LBSEQ","      72","LBTMSHI","LAB RESULT/UPPER LIMIT OF NORMAL","0.8","DERIVED","CLINICAL STUDY SPONSOR"],["CDISCPILOT01","LB","01-701-1023","LBSEQ","      73","ENDPOINT","ENDPOINT VALUE FLAG","Y","DERIVED","CLINICAL STUDY SPONSOR"],["CDISCPILOT01","LB","01-701-1023","LBSEQ","      73","LBTMSHI","LAB RESULT/UPPER LIMIT OF NORMAL","0.7","DERIVED","CLINICAL STUDY SPONSOR"],["CDISCPILOT01","LB","01-701-1023","LBSEQ","      74","ENDPOINT","ENDPOINT VALUE FLAG","Y","DERIVED","CLINICAL STUDY SPONSOR"],["CDISCPILOT01","LB","01-701-1023","LBSEQ","      74","LBTMSHI","LAB RESULT/UPPER LIMIT OF NORMAL","0.9","DERIVED","CLINICAL STUDY SPONSOR"],["CDISCPILOT01","LB","01-701-1023","LBSEQ","      75","ENDPOINT","ENDPOINT VALUE FLAG","Y","DERIVED","CLINICAL STUDY SPONSOR"],["CDISCPILOT01","LB","01-701-1023","LBSEQ","      75","LBTMSHI","LAB RESULT/UPPER LIMIT OF NORMAL","0.9","DERIVED","CLINICAL STUDY SPONSOR"],["CDISCPILOT01","LB","01-701-1023","LBSEQ","      76","ENDPOINT","ENDPOINT VALUE FLAG","Y","DERIVED","CLINICAL STUDY SPONSOR"],["CDISCPILOT01","LB","01-701-1023","LBSEQ","      76","LBTMSHI","LAB RESULT/UPPER LIMIT OF NORMAL","0.8","DERIVED","CLINICAL STUDY SPONSOR"],["CDISCPILOT01","LB","01-701-1023","LBSEQ","      77","ENDPOINT","ENDPOINT VALUE FLAG","Y","DERIVED","CLINICAL STUDY SPONSOR"],["CDISCPILOT01","LB","01-701-1023","LBSEQ","      77","LBTMSHI","LAB RESULT/UPPER LIMIT OF NORMAL","0.2","DERIVED","CLINICAL STUDY SPONSOR"],["CDISCPILOT01","LB","01-701-1023","LBSEQ","      78","ENDPOINT","ENDPOINT VALUE FLAG","Y","DERIVED","CLINICAL STUDY SPONSOR"],["CDISCPILOT01","LB","01-701-1023","LBSEQ","      78","LBTMSHI","LAB RESULT/UPPER LIMIT OF NORMAL","0.4","DERIVED","CLINICAL STUDY SPONSOR"],["CDISCPILOT01","LB","01-701-1023","LBSEQ","      79","ENDPOINT","ENDPOINT VALUE FLAG","Y","DERIVED","CLINICAL STUDY SPONSOR"],["CDISCPILOT01","LB","01-701-1023","LBSEQ","      79","LBTMSHI","LAB RESULT/UPPER LIMIT OF NORMAL","0.7","DERIVED","CLINICAL STUDY SPONSOR"],["CDISCPILOT01","LB","01-701-1023","LBSEQ","      80","ENDPOINT","ENDPOINT VALUE FLAG","Y","DERIVED","CLINICAL STUDY SPONSOR"],["CDISCPILOT01","LB","01-701-1023","LBSEQ","      80","LBTMSHI","LAB RESULT/UPPER LIMIT OF NORMAL","0.9","DERIVED","CLINICAL STUDY SPONSOR"],["CDISCPILOT01","LB","01-701-1023","LBSEQ","      81","ENDPOINT","ENDPOINT VALUE FLAG","Y","DERIVED","CLINICAL STUDY SPONSOR"],["CDISCPILOT01","LB","01-701-1023","LBSEQ","      81","LBTMSHI","LAB RESULT/UPPER LIMIT OF NORMAL","0.8","DERIVED","CLINICAL STUDY SPONSOR"],["CDISCPILOT01","LB","01-701-1023","LBSEQ","      82","ENDPOINT","ENDPOINT VALUE FLAG","Y","DERIVED","CLINICAL STUDY SPONSOR"],["CDISCPILOT01","LB","01-701-1023","LBSEQ","      82","LBTMSHI","LAB RESULT/UPPER LIMIT OF NORMAL","0.4","DERIVED","CLINICAL STUDY SPONSOR"],["CDISCPILOT01","LB","01-701-1023","LBSEQ","      83","ENDPOINT","ENDPOINT VALUE FLAG","Y","DERIVED","CLINICAL STUDY SPONSOR"],["CDISCPILOT01","LB","01-701-1023","LBSEQ","      83","LBTMSHI","LAB RESULT/UPPER LIMIT OF NORMAL","0.9","DERIVED","CLINICAL STUDY SPONSOR"],["CDISCPILOT01","LB","01-701-1023","LBSEQ","      85","ENDPOINT","ENDPOINT VALUE FLAG","Y","DERIVED","CLINICAL STUDY SPONSOR"],["CDISCPILOT01","LB","01-701-1023","LBSEQ","      85","LBTMSHI","LAB RESULT/UPPER LIMIT OF NORMAL","0.8","DERIVED","CLINICAL STUDY SPONSOR"],["CDISCPILOT01","LB","01-701-1023","LBSEQ","      86","ENDPOINT","ENDPOINT VALUE FLAG","Y","DERIVED","CLINICAL STUDY SPONSOR"],["CDISCPILOT01","LB","01-701-1023","LBSEQ","      86","LBTMSHI","LAB RESULT/UPPER LIMIT OF NORMAL","0.1","DERIVED","CLINICAL STUDY SPONSOR"],["CDISCPILOT01","LB","01-701-1023","LBSEQ","      87","ENDPOINT","ENDPOINT VALUE FLAG","Y","DERIVED","CLINICAL STUDY SPONSOR"],["CDISCPILOT01","LB","01-701-1023","LBSEQ","      87","LBTMSHI","LAB RESULT/UPPER LIMIT OF NORMAL","0.4","DERIVED","CLINICAL STUDY SPONSOR"],["CDISCPILOT01","LB","01-701-1023","LBSEQ","      88","ENDPOINT","ENDPOINT VALUE FLAG","Y","DERIVED","CLINICAL STUDY SPONSOR"],["CDISCPILOT01","LB","01-701-1023","LBSEQ","      88","LBTMSHI","LAB RESULT/UPPER LIMIT OF NORMAL","0.4","DERIVED","CLINICAL STUDY SPONSOR"],["CDISCPILOT01","LB","01-701-1023","LBSEQ","      89","ENDPOINT","ENDPOINT VALUE FLAG","Y","DERIVED","CLINICAL STUDY SPONSOR"],["CDISCPILOT01","LB","01-701-1023","LBSEQ","      89","LBTMSHI","LAB RESULT/UPPER LIMIT OF NORMAL","0.9","DERIVED","CLINICAL STUDY SPONSOR"],["CDISCPILOT01","LB","01-701-1023","LBSEQ","      90","ENDPOINT","ENDPOINT VALUE FLAG","Y","DERIVED","CLINICAL STUDY SPONSOR"],["CDISCPILOT01","LB","01-701-1023","LBSEQ","      90","LBTMSHI","LAB RESULT/UPPER LIMIT OF NORMAL","0.9","DERIVED","CLINICAL STUDY SPONSOR"],["CDISCPILOT01","LB","01-701-1023","LBSEQ","      91","ENDPOINT","ENDPOINT VALUE FLAG","Y","DERIVED","CLINICAL STUDY SPONSOR"],["CDISCPILOT01","LB","01-701-1023","LBSEQ","      91","LBTMSHI","LAB RESULT/UPPER LIMIT OF NORMAL","0.9","DERIVED","CLINICAL STUDY SPONSOR"],["CDISCPILOT01","LB","01-701-1023","LBSEQ","      93","ENDPOINT","ENDPOINT VALUE FLAG","Y","DERIVED","CLINICAL STUDY SPONSOR"],["CDISCPILOT01","LB","01-701-1023","LBSEQ","      93","LBTMSHI","LAB RESULT/UPPER LIMIT OF NORMAL","0.5","DERIVED","CLINICAL STUDY SPONSOR"],["CDISCPILOT01","LB","01-701-1023","LBSEQ","      94","ENDPOINT","ENDPOINT VALUE FLAG","Y","DERIVED","CLINICAL STUDY SPONSOR"],["CDISCPILOT01","LB","01-701-1023","LBSEQ","      94","LBTMSHI","LAB RESULT/UPPER LIMIT OF NORMAL","0.9","DERIVED","CLINICAL STUDY SPONSOR"],["CDISCPILOT01","LB","01-701-1023","LBSEQ","      95","ENDPOINT","ENDPOINT VALUE FLAG","Y","DERIVED","CLINICAL STUDY SPONSOR"],["CDISCPILOT01","LB","01-701-1023","LBSEQ","      95","LBTMSHI","LAB RESULT/UPPER LIMIT OF NORMAL","0.8","DERIVED","CLINICAL STUDY SPONSOR"],["CDISCPILOT01","LB","01-701-1023","LBSEQ","      96","ENDPOINT","ENDPOINT VALUE FLAG","Y","DERIVED","CLINICAL STUDY SPONSOR"],["CDISCPILOT01","LB","01-701-1023","LBSEQ","      96","LBTMSHI","LAB RESULT/UPPER LIMIT OF NORMAL","0.9","DERIVED","CLINICAL STUDY SPONSOR"],["CDISCPILOT01","LB","01-701-1023","LBSEQ","      97","ENDPOINT","ENDPOINT VALUE FLAG","Y","DERIVED","CLINICAL STUDY SPONSOR"],["CDISCPILOT01","LB","01-701-1023","LBSEQ","      97","LBTMSHI","LAB RESULT/UPPER LIMIT OF NORMAL","0.6","DERIVED","CLINICAL STUDY SPONSOR"],["CDISCPILOT01","LB","01-701-1023","LBSEQ","      98","ENDPOINT","ENDPOINT VALUE FLAG","Y","DERIVED","CLINICAL STUDY SPONSOR"],["CDISCPILOT01","LB","01-701-1023","LBSEQ","      98","LBTMSHI","LAB RESULT/UPPER LIMIT OF NORMAL","1.0","DERIVED","CLINICAL STUDY SPONSOR"],["CDISCPILOT01","LB","01-701-1023","LBSEQ","      99","ENDPOINT","ENDPOINT VALUE FLAG","Y","DERIVED","CLINICAL STUDY SPONSOR"],["CDISCPILOT01","LB","01-701-1023","LBSEQ","      99","LBTMSHI","LAB RESULT/UPPER LIMIT OF NORMAL","0.6","DERIVED","CLINICAL STUDY SPONSOR"],["CDISCPILOT01","LB","01-701-1023","LBSEQ","     100","ENDPOINT","ENDPOINT VALUE FLAG","Y","DERIVED","CLINICAL STUDY SPONSOR"],["CDISCPILOT01","LB","01-701-1023","LBSEQ","     100","LBTMSHI","LAB RESULT/UPPER LIMIT OF NORMAL","0.7","DERIVED","CLINICAL STUDY SPONSOR"],["CDISCPILOT01","LB","01-701-1023","LBSEQ","     101","ENDPOINT","ENDPOINT VALUE FLAG","Y","DERIVED","CLINICAL STUDY SPONSOR"],["CDISCPILOT01","LB","01-701-1023","LBSEQ","     101","LBTMSHI","LAB RESULT/UPPER LIMIT OF NORMAL","0.5","DERIVED","CLINICAL STUDY SPONSOR"],["CDISCPILOT01","LB","01-701-1023","LBSEQ","     102","ENDPOINT","ENDPOINT VALUE FLAG","Y","DERIVED","CLINICAL STUDY SPONSOR"],["CDISCPILOT01","LB","01-701-1023","LBSEQ","     102","LBTMSHI","LAB RESULT/UPPER LIMIT OF NORMAL","0.9","DERIVED","CLINICAL STUDY SPONSOR"],["CDISCPILOT01","LB","01-701-1023","LBSEQ","     103","ENDPOINT","ENDPOINT VALUE FLAG","Y","DERIVED","CLINICAL STUDY SPONSOR"],["CDISCPILOT01","LB","01-701-1023","LBSEQ","     103","LBTMSHI","LAB RESULT/UPPER LIMIT OF NORMAL","0.9","DERIVED","CLINICAL STUDY SPONSOR"],["CDISCPILOT01","LB","01-701-1023","LBSEQ","     104","ENDPOINT","ENDPOINT VALUE FLAG","Y","DERIVED","CLINICAL STUDY SPONSOR"],["CDISCPILOT01","LB","01-701-1023","LBSEQ","     104","LBTMSHI","LAB RESULT/UPPER LIMIT OF NORMAL","1.0","DERIVED","CLINICAL STUDY SPONSOR"],["CDISCPILOT01","LB","01-701-1023","LBSEQ","     105","ENDPOINT","ENDPOINT VALUE FLAG","Y","DERIVED","CLINICAL STUDY SPONSOR"],["CDISCPILOT01","LB","01-701-1023","LBSEQ","     105","LBTMSHI","LAB RESULT/UPPER LIMIT OF NORMAL","0.8","DERIVED","CLINICAL STUDY SPONSOR"],["CDISCPILOT01","LB","01-701-1023","LBSEQ","     107","ENDPOINT","ENDPOINT VALUE FLAG","Y","DERIVED","CLINICAL STUDY SPONSOR"],["CDISCPILOT01","LB","01-701-1023","LBSEQ","     107","LBTMSHI","LAB RESULT/UPPER LIMIT OF NORMAL","0.7","DERIVED","CLINICAL STUDY SPONSOR"],["CDISCPILOT01","LB","01-701-1028","LBSEQ","       1","LBTMSHI","LAB RESULT/UPPER LIMIT OF NORMAL","1.0","DERIVED","CLINICAL STUDY SPONSOR"],["CDISCPILOT01","LB","01-701-1028","LBSEQ","       2","LBTMSHI","LAB RESULT/UPPER LIMIT OF NORMAL","0.4","DERIVED","CLINICAL STUDY SPONSOR"],["CDISCPILOT01","LB","01-701-1028","LBSEQ","       3","LBTMSHI","LAB RESULT/UPPER LIMIT OF NORMAL","0.7","DERIVED","CLINICAL STUDY SPONSOR"],["CDISCPILOT01","LB","01-701-1028","LBSEQ","       4","LBTMSHI","LAB RESULT/UPPER LIMIT OF NORMAL","0.7","DERIVED","CLINICAL STUDY SPONSOR"],["CDISCPILOT01","LB","01-701-1028","LBSEQ","       5","LBTMSHI","LAB RESULT/UPPER LIMIT OF NORMAL","0.3","DERIVED","CLINICAL STUDY SPONSOR"],["CDISCPILOT01","LB","01-701-1028","LBSEQ","       6","LBTMSHI","LAB RESULT/UPPER LIMIT OF NORMAL","0.9","DERIVED","CLINICAL STUDY SPONSOR"],["CDISCPILOT01","LB","01-701-1028","LBSEQ","       7","LBTMSHI","LAB RESULT/UPPER LIMIT OF NORMAL","0.5","DERIVED","CLINICAL STUDY SPONSOR"],["CDISCPILOT01","LB","01-701-1028","LBSEQ","       8","LBTMSHI","LAB RESULT/UPPER LIMIT OF NORMAL","0.9","DERIVED","CLINICAL STUDY SPONSOR"],["CDISCPILOT01","LB","01-701-1028","LBSEQ","       9","LBTMSHI","LAB RESULT/UPPER LIMIT OF NORMAL","0.6","DERIVED","CLINICAL STUDY SPONSOR"],["CDISCPILOT01","LB","01-701-1028","LBSEQ","      10","LBTMSHI","LAB RESULT/UPPER LIMIT OF NORMAL","0.7","DERIVED","CLINICAL STUDY SPONSOR"],["CDISCPILOT01","LB","01-701-1028","LBSEQ","      11","LBTMSHI","LAB RESULT/UPPER LIMIT OF NORMAL","0.9","DERIVED","CLINICAL STUDY SPONSOR"],["CDISCPILOT01","LB","01-701-1028","LBSEQ","      13","LBTMSHI","LAB RESULT/UPPER LIMIT OF NORMAL","0.9","DERIVED","CLINICAL STUDY SPONSOR"],["CDISCPILOT01","LB","01-701-1028","LBSEQ","      14","LBTMSHI","LAB RESULT/UPPER LIMIT OF NORMAL","0.2","DERIVED","CLINICAL STUDY SPONSOR"],["CDISCPILOT01","LB","01-701-1028","LBSEQ","      15","LBTMSHI","LAB RESULT/UPPER LIMIT OF NORMAL","0.5","DERIVED","CLINICAL STUDY SPONSOR"],["CDISCPILOT01","LB","01-701-1028","LBSEQ","      16","LBTMSHI","LAB RESULT/UPPER LIMIT OF NORMAL","0.3","DERIVED","CLINICAL STUDY SPONSOR"],["CDISCPILOT01","LB","01-701-1028","LBSEQ","      17","LBTMSHI","LAB RESULT/UPPER LIMIT OF NORMAL","0.9","DERIVED","CLINICAL STUDY SPONSOR"],["CDISCPILOT01","LB","01-701-1028","LBSEQ","      18","LBTMSHI","LAB RESULT/UPPER LIMIT OF NORMAL","1.0","DERIVED","CLINICAL STUDY SPONSOR"],["CDISCPILOT01","LB","01-701-1028","LBSEQ","      19","LBTMSHI","LAB RESULT/UPPER LIMIT OF NORMAL","0.8","DERIVED","CLINICAL STUDY SPONSOR"],["CDISCPILOT01","LB","01-701-1028","LBSEQ","      21","LBTMSHI","LAB RESULT/UPPER LIMIT OF NORMAL","0.7","DERIVED","CLINICAL STUDY SPONSOR"],["CDISCPILOT01","LB","01-701-1028","LBSEQ","      22","LBTMSHI","LAB RESULT/UPPER LIMIT OF NORMAL","1.1","DERIVED","CLINICAL STUDY SPONSOR"],["CDISCPILOT01","LB","01-701-1028","LBSEQ","      23","LBTMSHI","LAB RESULT/UPPER LIMIT OF NORMAL","0.9","DERIVED","CLINICAL STUDY SPONSOR"],["CDISCPILOT01","LB","01-701-1028","LBSEQ","      24","LBTMSHI","LAB RESULT/UPPER LIMIT OF NORMAL","1.0","DERIVED","CLINICAL STUDY SPONSOR"],["CDISCPILOT01","LB","01-701-1028","LBSEQ","      25","LBTMSHI","LAB RESULT/UPPER LIMIT OF NORMAL","0.5","DERIVED","CLINICAL STUDY SPONSOR"],["CDISCPILOT01","LB","01-701-1028","LBSEQ","      26","LBTMSHI","LAB RESULT/UPPER LIMIT OF NORMAL","1.0","DERIVED","CLINICAL STUDY SPONSOR"],["CDISCPILOT01","LB","01-701-1028","LBSEQ","      27","LBTMSHI","LAB RESULT/UPPER LIMIT OF NORMAL","0.6","DERIVED","CLINICAL STUDY SPONSOR"],["CDISCPILOT01","LB","01-701-1028","LBSEQ","      28","LBTMSHI","LAB RESULT/UPPER LIMIT OF NORMAL","0.7","DERIVED","CLINICAL STUDY SPONSOR"],["CDISCPILOT01","LB","01-701-1028","LBSEQ","      29","LBTMSHI","LAB RESULT/UPPER LIMIT OF NORMAL","0.4","DERIVED","CLINICAL STUDY SPONSOR"],["CDISCPILOT01","LB","01-701-1028","LBSEQ","      30","LBTMSHI","LAB RESULT/UPPER LIMIT OF NORMAL","0.9","DERIVED","CLINICAL STUDY SPONSOR"],["CDISCPILOT01","LB","01-701-1028","LBSEQ","      31","LBTMSHI","LAB RESULT/UPPER LIMIT OF NORMAL","0.8","DERIVED","CLINICAL STUDY SPONSOR"],["CDISCPILOT01","LB","01-701-1028","LBSEQ","      32","LBTMSHI","LAB RESULT/UPPER LIMIT OF NORMAL","1.0","DERIVED","CLINICAL STUDY SPONSOR"],["CDISCPILOT01","LB","01-701-1028","LBSEQ","      33","LBTMSHI","LAB RESULT/UPPER LIMIT OF NORMAL","0.6","DERIVED","CLINICAL STUDY SPONSOR"],["CDISCPILOT01","LB","01-701-1028","LBSEQ","      34","LBTMSHI","LAB RESULT/UPPER LIMIT OF NORMAL","0.7","DERIVED","CLINICAL STUDY SPONSOR"],["CDISCPILOT01","LB","01-701-1028","LBSEQ","      36","LBTMSHI","LAB RESULT/UPPER LIMIT OF NORMAL","0.3","DERIVED","CLINICAL STUDY SPONSOR"],["CDISCPILOT01","LB","01-701-1028","LBSEQ","      37","LBTMSHI","LAB RESULT/UPPER LIMIT OF NORMAL","0.5","DERIVED","CLINICAL STUDY SPONSOR"],["CDISCPILOT01","LB","01-701-1028","LBSEQ","      38","LBTMSHI","LAB RESULT/UPPER LIMIT OF NORMAL","0.9","DERIVED","CLINICAL STUDY SPONSOR"],["CDISCPILOT01","LB","01-701-1028","LBSEQ","      39","LBTMSHI","LAB RESULT/UPPER LIMIT OF NORMAL","0.4","DERIVED","CLINICAL STUDY SPONSOR"],["CDISCPILOT01","LB","01-701-1028","LBSEQ","      40","LBTMSHI","LAB RESULT/UPPER LIMIT OF NORMAL","0.9","DERIVED","CLINICAL STUDY SPONSOR"],["CDISCPILOT01","LB","01-701-1028","LBSEQ","      41","LBTMSHI","LAB RESULT/UPPER LIMIT OF NORMAL","0.6","DERIVED","CLINICAL STUDY SPONSOR"],["CDISCPILOT01","LB","01-701-1028","LBSEQ","      42","LBTMSHI","LAB RESULT/UPPER LIMIT OF NORMAL","0.3","DERIVED","CLINICAL STUDY SPONSOR"],["CDISCPILOT01","LB","01-701-1028","LBSEQ","      43","LBTMSHI","LAB RESULT/UPPER LIMIT OF NORMAL","0.6","DERIVED","CLINICAL STUDY SPONSOR"],["CDISCPILOT01","LB","01-701-1028","LBSEQ","      44","LBTMSHI","LAB RESULT/UPPER LIMIT OF NORMAL","0.7","DERIVED","CLINICAL STUDY SPONSOR"],["CDISCPILOT01","LB","01-701-1028","LBSEQ","      45","LBTMSHI","LAB RESULT/UPPER LIMIT OF NORMAL","0.9","DERIVED","CLINICAL STUDY SPONSOR"],["CDISCPILOT01","LB","01-701-1028","LBSEQ","      46","LBTMSHI","LAB RESULT/UPPER LIMIT OF NORMAL","0.6","DERIVED","CLINICAL STUDY SPONSOR"],["CDISCPILOT01","LB","01-701-1028","LBSEQ","      47","LBTMSHI","LAB RESULT/UPPER LIMIT OF NORMAL","0.8","DERIVED","CLINICAL STUDY SPONSOR"],["CDISCPILOT01","LB","01-701-1028","LBSEQ","      48","LBTMSHI","LAB RESULT/UPPER LIMIT OF NORMAL","0.9","DERIVED","CLINICAL STUDY SPONSOR"],["CDISCPILOT01","LB","01-701-1028","LBSEQ","      50","LBTMSHI","LAB RESULT/UPPER LIMIT OF NORMAL","0.9","DERIVED","CLINICAL STUDY SPONSOR"],["CDISCPILOT01","LB","01-701-1028","LBSEQ","      51","LBTMSHI","LAB RESULT/UPPER LIMIT OF NORMAL","0.5","DERIVED","CLINICAL STUDY SPONSOR"],["CDISCPILOT01","LB","01-701-1028","LBSEQ","      52","LBTMSHI","LAB RESULT/UPPER LIMIT OF NORMAL","0.6","DERIVED","CLINICAL STUDY SPONSOR"],["CDISCPILOT01","LB","01-701-1028","LBSEQ","      53","LBTMSHI","LAB RESULT/UPPER LIMIT OF NORMAL","0.3","DERIVED","CLINICAL STUDY SPONSOR"],["CDISCPILOT01","LB","01-701-1028","LBSEQ","      54","LBTMSHI","LAB RESULT/UPPER LIMIT OF NORMAL","0.9","DERIVED","CLINICAL STUDY SPONSOR"],["CDISCPILOT01","LB","01-701-1028","LBSEQ","      55","LBTMSHI","LAB RESULT/UPPER LIMIT OF NORMAL","0.9","DERIVED","CLINICAL STUDY SPONSOR"],["CDISCPILOT01","LB","01-701-1028","LBSEQ","      56","LBTMSHI","LAB RESULT/UPPER LIMIT OF NORMAL","0.9","DERIVED","CLINICAL STUDY SPONSOR"],["CDISCPILOT01","LB","01-701-1028","LBSEQ","      58","LBTMSHI","LAB RESULT/UPPER LIMIT OF NORMAL","0.6","DERIVED","CLINICAL STUDY SPONSOR"],["CDISCPILOT01","LB","01-701-1028","LBSEQ","      59","LBTMSHI","LAB RESULT/UPPER LIMIT OF NORMAL","1.0","DERIVED","CLINICAL STUDY SPONSOR"],["CDISCPILOT01","LB","01-701-1028","LBSEQ","      60","LBTMSHI","LAB RESULT/UPPER LIMIT OF NORMAL","0.9","DERIVED","CLINICAL STUDY SPONSOR"],["CDISCPILOT01","LB","01-701-1028","LBSEQ","      61","LBTMSHI","LAB RESULT/UPPER LIMIT OF NORMAL","1.0","DERIVED","CLINICAL STUDY SPONSOR"],["CDISCPILOT01","LB","01-701-1028","LBSEQ","      62","LBTMSHI","LAB RESULT/UPPER LIMIT OF NORMAL","0.5","DERIVED","CLINICAL STUDY SPONSOR"],["CDISCPILOT01","LB","01-701-1028","LBSEQ","      63","LBTMSHI","LAB RESULT/UPPER LIMIT OF NORMAL","0.9","DERIVED","CLINICAL STUDY SPONSOR"],["CDISCPILOT01","LB","01-701-1028","LBSEQ","      64","LBTMSHI","LAB RESULT/UPPER LIMIT OF NORMAL","0.6","DERIVED","CLINICAL STUDY SPONSOR"],["CDISCPILOT01","LB","01-701-1028","LBSEQ","      65","LBTMSHI","LAB RESULT/UPPER LIMIT OF NORMAL","0.6","DERIVED","CLINICAL STUDY SPONSOR"],["CDISCPILOT01","LB","01-701-1028","LBSEQ","      66","LBTMSHI","LAB RESULT/UPPER LIMIT OF NORMAL","0.4","DERIVED","CLINICAL STUDY SPONSOR"],["CDISCPILOT01","LB","01-701-1028","LBSEQ","      67","LBTMSHI","LAB RESULT/UPPER LIMIT OF NORMAL","0.9","DERIVED","CLINICAL STUDY SPONSOR"],["CDISCPILOT01","LB","01-701-1028","LBSEQ","      68","LBTMSHI","LAB RESULT/UPPER LIMIT OF NORMAL","0.8","DERIVED","CLINICAL STUDY SPONSOR"],["CDISCPILOT01","LB","01-701-1028","LBSEQ","      69","LBTMSHI","LAB RESULT/UPPER LIMIT OF NORMAL","1.0","DERIVED","CLINICAL STUDY SPONSOR"],["CDISCPILOT01","LB","01-701-1028","LBSEQ","      70","LBTMSHI","LAB RESULT/UPPER LIMIT OF NORMAL","0.8","DERIVED","CLINICAL STUDY SPONSOR"],["CDISCPILOT01","LB","01-701-1028","LBSEQ","      72","LBTMSHI","LAB RESULT/UPPER LIMIT OF NORMAL","0.5","DERIVED","CLINICAL STUDY SPONSOR"],["CDISCPILOT01","LB","01-701-1028","LBSEQ","      73","LBTMSHI","LAB RESULT/UPPER LIMIT OF NORMAL","0.9","DERIVED","CLINICAL STUDY SPONSOR"],["CDISCPILOT01","LB","01-701-1028","LBSEQ","      74","LBTMSHI","LAB RESULT/UPPER LIMIT OF NORMAL","0.3","DERIVED","CLINICAL STUDY SPONSOR"],["CDISCPILOT01","LB","01-701-1028","LBSEQ","      75","LBTMSHI","LAB RESULT/UPPER LIMIT OF NORMAL","0.8","DERIVED","CLINICAL STUDY SPONSOR"],["CDISCPILOT01","LB","01-701-1028","LBSEQ","      76","LBTMSHI","LAB RESULT/UPPER LIMIT OF NORMAL","0.7","DERIVED","CLINICAL STUDY SPONSOR"],["CDISCPILOT01","LB","01-701-1028","LBSEQ","      77","LBTMSHI","LAB RESULT/UPPER LIMIT OF NORMAL","0.2","DERIVED","CLINICAL STUDY SPONSOR"],["CDISCPILOT01","LB","01-701-1028","LBSEQ","      78","LBTMSHI","LAB RESULT/UPPER LIMIT OF NORMAL","0.7","DERIVED","CLINICAL STUDY SPONSOR"],["CDISCPILOT01","LB","01-701-1028","LBSEQ","      79","LBTMSHI","LAB RESULT/UPPER LIMIT OF NORMAL","0.7","DERIVED","CLINICAL STUDY SPONSOR"],["CDISCPILOT01","LB","01-701-1028","LBSEQ","      80","LBTMSHI","LAB RESULT/UPPER LIMIT OF NORMAL","0.8","DERIVED","CLINICAL STUDY SPONSOR"],["CDISCPILOT01","LB","01-701-1028","LBSEQ","      81","LBTMSHI","LAB RESULT/UPPER LIMIT OF NORMAL","0.6","DERIVED","CLINICAL STUDY SPONSOR"],["CDISCPILOT01","LB","01-701-1028","LBSEQ","      82","LBTMSHI","LAB RESULT/UPPER LIMIT OF NORMAL","0.9","DERIVED","CLINICAL STUDY SPONSOR"],["CDISCPILOT01","LB","01-701-1028","LBSEQ","      83","LBTMSHI","LAB RESULT/UPPER LIMIT OF NORMAL","1.0","DERIVED","CLINICAL STUDY SPONSOR"],["CDISCPILOT01","LB","01-701-1028","LBSEQ","      84","LBTMSHI","LAB RESULT/UPPER LIMIT OF NORMAL","1.0","DERIVED","CLINICAL STUDY SPONSOR"],["CDISCPILOT01","LB","01-701-1028","LBSEQ","      85","LBTMSHI","LAB RESULT/UPPER LIMIT OF NORMAL","0.4","DERIVED","CLINICAL STUDY SPONSOR"],["CDISCPILOT01","LB","01-701-1028","LBSEQ","      86","LBTMSHI","LAB RESULT/UPPER LIMIT OF NORMAL","0.5","DERIVED","CLINICAL STUDY SPONSOR"],["CDISCPILOT01","LB","01-701-1028","LBSEQ","      87","LBTMSHI","LAB RESULT/UPPER LIMIT OF NORMAL","0.3","DERIVED","CLINICAL STUDY SPONSOR"],["CDISCPILOT01","LB","01-701-1028","LBSEQ","      88","LBTMSHI","LAB RESULT/UPPER LIMIT OF NORMAL","0.9","DERIVED","CLINICAL STUDY SPONSOR"],["CDISCPILOT01","LB","01-701-1028","LBSEQ","      89","LBTMSHI","LAB RESULT/UPPER LIMIT OF NORMAL","0.9","DERIVED","CLINICAL STUDY SPONSOR"],["CDISCPILOT01","LB","01-701-1028","LBSEQ","      90","LBTMSHI","LAB RESULT/UPPER LIMIT OF NORMAL","0.9","DERIVED","CLINICAL STUDY SPONSOR"],["CDISCPILOT01","LB","01-701-1028","LBSEQ","      91","LBTMSHI","LAB RESULT/UPPER LIMIT OF NORMAL","0.6","DERIVED","CLINICAL STUDY SPONSOR"],["CDISCPILOT01","LB","01-701-1028","LBSEQ","      92","LBTMSHI","LAB RESULT/UPPER LIMIT OF NORMAL","1.0","DERIVED","CLINICAL STUDY SPONSOR"],["CDISCPILOT01","LB","01-701-1028","LBSEQ","      93","LBTMSHI","LAB RESULT/UPPER LIMIT OF NORMAL","0.9","DERIVED","CLINICAL STUDY SPONSOR"],["CDISCPILOT01","LB","01-701-1028","LBSEQ","      94","LBTMSHI","LAB RESULT/UPPER LIMIT OF NORMAL","1.0","DERIVED","CLINICAL STUDY SPONSOR"],["CDISCPILOT01","LB","01-701-1028","LBSEQ","      95","LBTMSHI","LAB RESULT/UPPER LIMIT OF NORMAL","0.7","DERIVED","CLINICAL STUDY SPONSOR"],["CDISCPILOT01","LB","01-701-1028","LBSEQ","      96","LBTMSHI","LAB RESULT/UPPER LIMIT OF NORMAL","1.0","DERIVED","CLINICAL STUDY SPONSOR"],["CDISCPILOT01","LB","01-701-1028","LBSEQ","      97","LBTMSHI","LAB RESULT/UPPER LIMIT OF NORMAL","0.7","DERIVED","CLINICAL STUDY SPONSOR"],["CDISCPILOT01","LB","01-701-1028","LBSEQ","      98","LBTMSHI","LAB RESULT/UPPER LIMIT OF NORMAL","0.4","DERIVED","CLINICAL STUDY SPONSOR"],["CDISCPILOT01","LB","01-701-1028","LBSEQ","      99","LBTMSHI","LAB RESULT/UPPER LIMIT OF NORMAL","0.9","DERIVED","CLINICAL STUDY SPONSOR"],["CDISCPILOT01","LB","01-701-1028","LBSEQ","     100","LBTMSHI","LAB RESULT/UPPER LIMIT OF NORMAL","0.8","DERIVED","CLINICAL STUDY SPONSOR"],["CDISCPILOT01","LB","01-701-1028","LBSEQ","     101","LBTMSHI","LAB RESULT/UPPER LIMIT OF NORMAL","0.8","DERIVED","CLINICAL STUDY SPONSOR"],["CDISCPILOT01","LB","01-701-1028","LBSEQ","     102","LBTMSHI","LAB RESULT/UPPER LIMIT OF NORMAL","0.5","DERIVED","CLINICAL STUDY SPONSOR"],["CDISCPILOT01","LB","01-701-1028","LBSEQ","     103","LBTMSHI","LAB RESULT/UPPER LIMIT OF NORMAL","0.9","DERIVED","CLINICAL STUDY SPONSOR"],["CDISCPILOT01","LB","01-701-1028","LBSEQ","     104","LBTMSHI","LAB RESULT/UPPER LIMIT OF NORMAL","0.3","DERIVED","CLINICAL STUDY SPONSOR"],["CDISCPILOT01","LB","01-701-1028","LBSEQ","     105","LBTMSHI","LAB RESULT/UPPER LIMIT OF NORMAL","0.9","DERIVED","CLINICAL STUDY SPONSOR"],["CDISCPILOT01","LB","01-701-1028","LBSEQ","     106","LBTMSHI","LAB RESULT/UPPER LIMIT OF NORMAL","0.7","DERIVED","CLINICAL STUDY SPONSOR"],["CDISCPILOT01","LB","01-701-1028","LBSEQ","     107","LBTMSHI","LAB RESULT/UPPER LIMIT OF NORMAL","0.2","DERIVED","CLINICAL STUDY SPONSOR"],["CDISCPILOT01","LB","01-701-1028","LBSEQ","     108","LBTMSHI","LAB RESULT/UPPER LIMIT OF NORMAL","0.6","DERIVED","CLINICAL STUDY SPONSOR"],["CDISCPILOT01","LB","01-701-1028","LBSEQ","     109","LBTMSHI","LAB RESULT/UPPER LIMIT OF NORMAL","0.6","DERIVED","CLINICAL STUDY SPONSOR"],["CDISCPILOT01","LB","01-701-1028","LBSEQ","     110","LBTMSHI","LAB RESULT/UPPER LIMIT OF NORMAL","0.9","DERIVED","CLINICAL STUDY SPONSOR"],["CDISCPILOT01","LB","01-701-1028","LBSEQ","     111","LBTMSHI","LAB RESULT/UPPER LIMIT OF NORMAL","0.6","DERIVED","CLINICAL STUDY SPONSOR"],["CDISCPILOT01","LB","01-701-1028","LBSEQ","     112","LBTMSHI","LAB RESULT/UPPER LIMIT OF NORMAL","0.9","DERIVED","CLINICAL STUDY SPONSOR"],["CDISCPILOT01","LB","01-701-1028","LBSEQ","     113","LBTMSHI","LAB RESULT/UPPER LIMIT OF NORMAL","1.0","DERIVED","CLINICAL STUDY SPONSOR"],["CDISCPILOT01","LB","01-701-1028","LBSEQ","     114","LBTMSHI","LAB RESULT/UPPER LIMIT OF NORMAL","0.9","DERIVED","CLINICAL STUDY SPONSOR"],["CDISCPILOT01","LB","01-701-1028","LBSEQ","     115","LBTMSHI","LAB RESULT/UPPER LIMIT OF NORMAL","0.3","DERIVED","CLINICAL STUDY SPONSOR"],["CDISCPILOT01","LB","01-701-1028","LBSEQ","     116","LBTMSHI","LAB RESULT/UPPER LIMIT OF NORMAL","0.5","DERIVED","CLINICAL STUDY SPONSOR"],["CDISCPILOT01","LB","01-701-1028","LBSEQ","     117","LBTMSHI","LAB RESULT/UPPER LIMIT OF NORMAL","0.3","DERIVED","CLINICAL STUDY SPONSOR"],["CDISCPILOT01","LB","01-701-1028","LBSEQ","     118","LBTMSHI","LAB RESULT/UPPER LIMIT OF NORMAL","0.9","DERIVED","CLINICAL STUDY SPONSOR"],["CDISCPILOT01","LB","01-701-1028","LBSEQ","     119","LBTMSHI","LAB RESULT/UPPER LIMIT OF NORMAL","0.9","DERIVED","CLINICAL STUDY SPONSOR"],["CDISCPILOT01","LB","01-701-1028","LBSEQ","     120","LBTMSHI","LAB RESULT/UPPER LIMIT OF NORMAL","0.8","DERIVED","CLINICAL STUDY SPONSOR"],["CDISCPILOT01","LB","01-701-1028","LBSEQ","     121","LBTMSHI","LAB RESULT/UPPER LIMIT OF NORMAL","0.7","DERIVED","CLINICAL STUDY SPONSOR"],["CDISCPILOT01","LB","01-701-1028","LBSEQ","     122","LBTMSHI","LAB RESULT/UPPER LIMIT OF NORMAL","1.0","DERIVED","CLINICAL STUDY SPONSOR"],["CDISCPILOT01","LB","01-701-1028","LBSEQ","     123","LBTMSHI","LAB RESULT/UPPER LIMIT OF NORMAL","0.9","DERIVED","CLINICAL STUDY SPONSOR"],["CDISCPILOT01","LB","01-701-1028","LBSEQ","     124","LBTMSHI","LAB RESULT/UPPER LIMIT OF NORMAL","1.0","DERIVED","CLINICAL STUDY SPONSOR"],["CDISCPILOT01","LB","01-701-1028","LBSEQ","     125","LBTMSHI","LAB RESULT/UPPER LIMIT OF NORMAL","0.5","DERIVED","CLINICAL STUDY SPONSOR"],["CDISCPILOT01","LB","01-701-1028","LBSEQ","     126","LBTMSHI","LAB RESULT/UPPER LIMIT OF NORMAL","1.0","DERIVED","CLINICAL STUDY SPONSOR"],["CDISCPILOT01","LB","01-701-1028","LBSEQ","     127","LBTMSHI","LAB RESULT/UPPER LIMIT OF NORMAL","0.7","DERIVED","CLINICAL STUDY SPONSOR"],["CDISCPILOT01","LB","01-701-1028","LBSEQ","     128","LBTMSHI","LAB RESULT/UPPER LIMIT OF NORMAL","0.5","DERIVED","CLINICAL STUDY SPONSOR"],["CDISCPILOT01","LB","01-701-1028","LBSEQ","     129","LBTMSHI","LAB RESULT/UPPER LIMIT OF NORMAL","0.9","DERIVED","CLINICAL STUDY SPONSOR"],["CDISCPILOT01","LB","01-701-1028","LBSEQ","     130","LBTMSHI","LAB RESULT/UPPER LIMIT OF NORMAL","0.8","DERIVED","CLINICAL STUDY SPONSOR"],["CDISCPILOT01","LB","01-701-1028","LBSEQ","     131","LBTMSHI","LAB RESULT/UPPER LIMIT OF NORMAL","0.7","DERIVED","CLINICAL STUDY SPONSOR"],["CDISCPILOT01","LB","01-701-1028","LBSEQ","     132","LBTMSHI","LAB RESULT/UPPER LIMIT OF NORMAL","0.5","DERIVED","CLINICAL STUDY SPONSOR"],["CDISCPILOT01","LB","01-701-1028","LBSEQ","     133","LBTMSHI","LAB RESULT/UPPER LIMIT OF NORMAL","0.8","DERIVED","CLINICAL STUDY SPONSOR"],["CDISCPILOT01","LB","01-701-1028","LBSEQ","     134","LBTMSHI","LAB RESULT/UPPER LIMIT OF NORMAL","0.3","DERIVED","CLINICAL STUDY SPONSOR"],["CDISCPILOT01","LB","01-701-1028","LBSEQ","     135","LBTMSHI","LAB RESULT/UPPER LIMIT OF NORMAL","0.9","DERIVED","CLINICAL STUDY SPONSOR"],["CDISCPILOT01","LB","01-701-1028","LBSEQ","     136","LBTMSHI","LAB RESULT/UPPER LIMIT OF NORMAL","0.8","DERIVED","CLINICAL STUDY SPONSOR"],["CDISCPILOT01","LB","01-701-1028","LBSEQ","     137","LBTMSHI","LAB RESULT/UPPER LIMIT OF NORMAL","0.2","DERIVED","CLINICAL STUDY SPONSOR"],["CDISCPILOT01","LB","01-701-1028","LBSEQ","     138","LBTMSHI","LAB RESULT/UPPER LIMIT OF NORMAL","0.7","DERIVED","CLINICAL STUDY SPONSOR"],["CDISCPILOT01","LB","01-701-1028","LBSEQ","     139","LBTMSHI","LAB RESULT/UPPER LIMIT OF NORMAL","0.7","DERIVED","CLINICAL STUDY SPONSOR"],["CDISCPILOT01","LB","01-701-1028","LBSEQ","     140","LBTMSHI","LAB RESULT/UPPER LIMIT OF NORMAL","0.8","DERIVED","CLINICAL STUDY SPONSOR"],["CDISCPILOT01","LB","01-701-1028","LBSEQ","     141","LBTMSHI","LAB RESULT/UPPER LIMIT OF NORMAL","0.6","DERIVED","CLINICAL STUDY SPONSOR"],["CDISCPILOT01","LB","01-701-1028","LBSEQ","     142","LBTMSHI","LAB RESULT/UPPER LIMIT OF NORMAL","1.6","DERIVED","CLINICAL STUDY SPONSOR"],["CDISCPILOT01","LB","01-701-1028","LBSEQ","     143","LBTMSHI","LAB RESULT/UPPER LIMIT OF NORMAL","0.9","DERIVED","CLINICAL STUDY SPONSOR"],["CDISCPILOT01","LB","01-701-1028","LBSEQ","     144","LBTMSHI","LAB RESULT/UPPER LIMIT OF NORMAL","0.9","DERIVED","CLINICAL STUDY SPONSOR"],["CDISCPILOT01","LB","01-701-1028","LBSEQ","     145","LBTMSHI","LAB RESULT/UPPER LIMIT OF NORMAL","0.5","DERIVED","CLINICAL STUDY SPONSOR"],["CDISCPILOT01","LB","01-701-1028","LBSEQ","     146","LBTMSHI","LAB RESULT/UPPER LIMIT OF NORMAL","0.5","DERIVED","CLINICAL STUDY SPONSOR"],["CDISCPILOT01","LB","01-701-1028","LBSEQ","     147","LBTMSHI","LAB RESULT/UPPER LIMIT OF NORMAL","0.4","DERIVED","CLINICAL STUDY SPONSOR"],["CDISCPILOT01","LB","01-701-1028","LBSEQ","     148","LBTMSHI","LAB RESULT/UPPER LIMIT OF NORMAL","0.9","DERIVED","CLINICAL STUDY SPONSOR"],["CDISCPILOT01","LB","01-701-1028","LBSEQ","     149","LBTMSHI","LAB RESULT/UPPER LIMIT OF NORMAL","0.9","DERIVED","CLINICAL STUDY SPONSOR"],["CDISCPILOT01","LB","01-701-1028","LBSEQ","     150","LBTMSHI","LAB RESULT/UPPER LIMIT OF NORMAL","0.7","DERIVED","CLINICAL STUDY SPONSOR"],["CDISCPILOT01","LB","01-701-1028","LBSEQ","     151","LBTMSHI","LAB RESULT/UPPER LIMIT OF NORMAL","0.7","DERIVED","CLINICAL STUDY SPONSOR"],["CDISCPILOT01","LB","01-701-1028","LBSEQ","     152","LBTMSHI","LAB RESULT/UPPER LIMIT OF NORMAL","1.0","DERIVED","CLINICAL STUDY SPONSOR"],["CDISCPILOT01","LB","01-701-1028","LBSEQ","     153","LBTMSHI","LAB RESULT/UPPER LIMIT OF NORMAL","0.9","DERIVED","CLINICAL STUDY SPONSOR"],["CDISCPILOT01","LB","01-701-1028","LBSEQ","     154","LBTMSHI","LAB RESULT/UPPER LIMIT OF NORMAL","1.0","DERIVED","CLINICAL STUDY SPONSOR"],["CDISCPILOT01","LB","01-701-1028","LBSEQ","     155","LBTMSHI","LAB RESULT/UPPER LIMIT OF NORMAL","0.7","DERIVED","CLINICAL STUDY SPONSOR"],["CDISCPILOT01","LB","01-701-1028","LBSEQ","     156","LBTMSHI","LAB RESULT/UPPER LIMIT OF NORMAL","0.9","DERIVED","CLINICAL STUDY SPONSOR"],["CDISCPILOT01","LB","01-701-1028","LBSEQ","     157","LBTMSHI","LAB RESULT/UPPER LIMIT OF NORMAL","0.5","DERIVED","CLINICAL STUDY SPONSOR"],["CDISCPILOT01","LB","01-701-1028","LBSEQ","     158","LBTMSHI","LAB RESULT/UPPER LIMIT OF NORMAL","0.4","DERIVED","CLINICAL STUDY SPONSOR"],["CDISCPILOT01","LB","01-701-1028","LBSEQ","     159","LBTMSHI","LAB RESULT/UPPER LIMIT OF NORMAL","0.8","DERIVED","CLINICAL STUDY SPONSOR"],["CDISCPILOT01","LB","01-701-1028","LBSEQ","     160","LBTMSHI","LAB RESULT/UPPER LIMIT OF NORMAL","0.8","DERIVED","CLINICAL STUDY SPONSOR"],["CDISCPILOT01","LB","01-701-1028","LBSEQ","     161","LBTMSHI","LAB RESULT/UPPER LIMIT OF NORMAL","0.7","DERIVED","CLINICAL STUDY SPONSOR"],["CDISCPILOT01","LB","01-701-1028","LBSEQ","     162","LBTMSHI","LAB RESULT/UPPER LIMIT OF NORMAL","0.5","DERIVED","CLINICAL STUDY SPONSOR"],["CDISCPILOT01","LB","01-701-1028","LBSEQ","     163","LBTMSHI","LAB RESULT/UPPER LIMIT OF NORMAL","1.0","DERIVED","CLINICAL STUDY SPONSOR"],["CDISCPILOT01","LB","01-701-1028","LBSEQ","     164","LBTMSHI","LAB RESULT/UPPER LIMIT OF NORMAL","0.4","DERIVED","CLINICAL STUDY SPONSOR"],["CDISCPILOT01","LB","01-701-1028","LBSEQ","     165","LBTMSHI","LAB RESULT/UPPER LIMIT OF NORMAL","0.8","DERIVED","CLINICAL STUDY SPONSOR"],["CDISCPILOT01","LB","01-701-1028","LBSEQ","     166","LBTMSHI","LAB RESULT/UPPER LIMIT OF NORMAL","0.8","DERIVED","CLINICAL STUDY SPONSOR"],["CDISCPILOT01","LB","01-701-1028","LBSEQ","     167","LBTMSHI","LAB RESULT/UPPER LIMIT OF NORMAL","0.4","DERIVED","CLINICAL STUDY SPONSOR"],["CDISCPILOT01","LB","01-701-1028","LBSEQ","     168","LBTMSHI","LAB RESULT/UPPER LIMIT OF NORMAL","0.7","DERIVED","CLINICAL STUDY SPONSOR"],["CDISCPILOT01","LB","01-701-1028","LBSEQ","     169","LBTMSHI","LAB RESULT/UPPER LIMIT OF NORMAL","0.7","DERIVED","CLINICAL STUDY SPONSOR"],["CDISCPILOT01","LB","01-701-1028","LBSEQ","     170","LBTMSHI","LAB RESULT/UPPER LIMIT OF NORMAL","0.9","DERIVED","CLINICAL STUDY SPONSOR"],["CDISCPILOT01","LB","01-701-1028","LBSEQ","     171","LBTMSHI","LAB RESULT/UPPER LIMIT OF NORMAL","0.7","DERIVED","CLINICAL STUDY SPONSOR"],["CDISCPILOT01","LB","01-701-1028","LBSEQ","     172","LBTMSHI","LAB RESULT/UPPER LIMIT OF NORMAL","0.6","DERIVED","CLINICAL STUDY SPONSOR"],["CDISCPILOT01","LB","01-701-1028","LBSEQ","     173","LBTMSHI","LAB RESULT/UPPER LIMIT OF NORMAL","0.9","DERIVED","CLINICAL STUDY SPONSOR"],["CDISCPILOT01","LB","01-701-1028","LBSEQ","     175","LBTMSHI","LAB RESULT/UPPER LIMIT OF NORMAL","0.9","DERIVED","CLINICAL STUDY SPONSOR"],["CDISCPILOT01","LB","01-701-1028","LBSEQ","     176","LBTMSHI","LAB RESULT/UPPER LIMIT OF NORMAL","0.3","DERIVED","CLINICAL STUDY SPONSOR"],["CDISCPILOT01","LB","01-701-1028","LBSEQ","     177","LBTMSHI","LAB RESULT/UPPER LIMIT OF NORMAL","0.5","DERIVED","CLINICAL STUDY SPONSOR"],["CDISCPILOT01","LB","01-701-1028","LBSEQ","     178","LBTMSHI","LAB RESULT/UPPER LIMIT OF NORMAL","0.3","DERIVED","CLINICAL STUDY SPONSOR"],["CDISCPILOT01","LB","01-701-1028","LBSEQ","     179","LBTMSHI","LAB RESULT/UPPER LIMIT OF NORMAL","1.0","DERIVED","CLINICAL STUDY SPONSOR"],["CDISCPILOT01","LB","01-701-1028","LBSEQ","     180","LBTMSHI","LAB RESULT/UPPER LIMIT OF NORMAL","1.0","DERIVED","CLINICAL STUDY SPONSOR"],["CDISCPILOT01","LB","01-701-1028","LBSEQ","     181","LBTMSHI","LAB RESULT/UPPER LIMIT OF NORMAL","0.8","DERIVED","CLINICAL STUDY SPONSOR"],["CDISCPILOT01","LB","01-701-1028","LBSEQ","     183","LBTMSHI","LAB RESULT/UPPER LIMIT OF NORMAL","0.6","DERIVED","CLINICAL STUDY SPONSOR"],["CDISCPILOT01","LB","01-701-1028","LBSEQ","     184","LBTMSHI","LAB RESULT/UPPER LIMIT OF NORMAL","1.0","DERIVED","CLINICAL STUDY SPONSOR"],["CDISCPILOT01","LB","01-701-1028","LBSEQ","     185","LBTMSHI","LAB RESULT/UPPER LIMIT OF NORMAL","0.9","DERIVED","CLINICAL STUDY SPONSOR"],["CDISCPILOT01","LB","01-701-1028","LBSEQ","     186","LBTMSHI","LAB RESULT/UPPER LIMIT OF NORMAL","1.0","DERIVED","CLINICAL STUDY SPONSOR"],["CDISCPILOT01","LB","01-701-1028","LBSEQ","     187","LBTMSHI","LAB RESULT/UPPER LIMIT OF NORMAL","0.5","DERIVED","CLINICAL STUDY SPONSOR"],["CDISCPILOT01","LB","01-701-1028","LBSEQ","     188","LBTMSHI","LAB RESULT/UPPER LIMIT OF NORMAL","1.0","DERIVED","CLINICAL STUDY SPONSOR"],["CDISCPILOT01","LB","01-701-1028","LBSEQ","     189","LBTMSHI","LAB RESULT/UPPER LIMIT OF NORMAL","0.6","DERIVED","CLINICAL STUDY SPONSOR"],["CDISCPILOT01","LB","01-701-1028","LBSEQ","     190","LBTMSHI","LAB RESULT/UPPER LIMIT OF NORMAL","0.5","DERIVED","CLINICAL STUDY SPONSOR"],["CDISCPILOT01","LB","01-701-1028","LBSEQ","     191","LBTMSHI","LAB RESULT/UPPER LIMIT OF NORMAL","0.4","DERIVED","CLINICAL STUDY SPONSOR"],["CDISCPILOT01","LB","01-701-1028","LBSEQ","     192","LBTMSHI","LAB RESULT/UPPER LIMIT OF NORMAL","1.0","DERIVED","CLINICAL STUDY SPONSOR"],["CDISCPILOT01","LB","01-701-1028","LBSEQ","     193","LBTMSHI","LAB RESULT/UPPER LIMIT OF NORMAL","0.8","DERIVED","CLINICAL STUDY SPONSOR"],["CDISCPILOT01","LB","01-701-1028","LBSEQ","     194","LBTMSHI","LAB RESULT/UPPER LIMIT OF NORMAL","1.0","DERIVED","CLINICAL STUDY SPONSOR"],["CDISCPILOT01","LB","01-701-1028","LBSEQ","     195","LBTMSHI","LAB RESULT/UPPER LIMIT OF NORMAL","0.7","DERIVED","CLINICAL STUDY SPONSOR"],["CDISCPILOT01","LB","01-701-1028","LBSEQ","     197","LBTMSHI","LAB RESULT/UPPER LIMIT OF NORMAL","0.5","DERIVED","CLINICAL STUDY SPONSOR"],["CDISCPILOT01","LB","01-701-1028","LBSEQ","     198","LBTMSHI","LAB RESULT/UPPER LIMIT OF NORMAL","0.8","DERIVED","CLINICAL STUDY SPONSOR"],["CDISCPILOT01","LB","01-701-1028","LBSEQ","     199","LBTMSHI","LAB RESULT/UPPER LIMIT OF NORMAL","0.3","DERIVED","CLINICAL STUDY SPONSOR"],["CDISCPILOT01","LB","01-701-1028","LBSEQ","     200","LBTMSHI","LAB RESULT/UPPER LIMIT OF NORMAL","0.7","DERIVED","CLINICAL STUDY SPONSOR"],["CDISCPILOT01","LB","01-701-1028","LBSEQ","     202","LBTMSHI","LAB RESULT/UPPER LIMIT OF NORMAL","0.5","DERIVED","CLINICAL STUDY SPONSOR"],["CDISCPILOT01","LB","01-701-1028","LBSEQ","     203","LBTMSHI","LAB RESULT/UPPER LIMIT OF NORMAL","0.3","DERIVED","CLINICAL STUDY SPONSOR"],["CDISCPILOT01","LB","01-701-1028","LBSEQ","     204","LBTMSHI","LAB RESULT/UPPER LIMIT OF NORMAL","0.6","DERIVED","CLINICAL STUDY SPONSOR"],["CDISCPILOT01","LB","01-701-1028","LBSEQ","     205","LBTMSHI","LAB RESULT/UPPER LIMIT OF NORMAL","0.6","DERIVED","CLINICAL STUDY SPONSOR"],["CDISCPILOT01","LB","01-701-1028","LBSEQ","     206","LBTMSHI","LAB RESULT/UPPER LIMIT OF NORMAL","0.8","DERIVED","CLINICAL STUDY SPONSOR"],["CDISCPILOT01","LB","01-701-1028","LBSEQ","     207","LBTMSHI","LAB RESULT/UPPER LIMIT OF NORMAL","0.5","DERIVED","CLINICAL STUDY SPONSOR"],["CDISCPILOT01","LB","01-701-1028","LBSEQ","     208","LBTMSHI","LAB RESULT/UPPER LIMIT OF NORMAL","0.5","DERIVED","CLINICAL STUDY SPONSOR"],["CDISCPILOT01","LB","01-701-1028","LBSEQ","     209","LBTMSHI","LAB RESULT/UPPER LIMIT OF NORMAL","1.0","DERIVED","CLINICAL STUDY SPONSOR"],["CDISCPILOT01","LB","01-701-1028","LBSEQ","     210","LBTMSHI","LAB RESULT/UPPER LIMIT OF NORMAL","0.8","DERIVED","CLINICAL STUDY SPONSOR"],["CDISCPILOT01","LB","01-701-1028","LBSEQ","     211","LBTMSHI","LAB RESULT/UPPER LIMIT OF NORMAL","0.3","DERIVED","CLINICAL STUDY SPONSOR"],["CDISCPILOT01","LB","01-701-1028","LBSEQ","     212","LBTMSHI","LAB RESULT/UPPER LIMIT OF NORMAL","0.4","DERIVED","CLINICAL STUDY SPONSOR"],["CDISCPILOT01","LB","01-701-1028","LBSEQ","     213","LBTMSHI","LAB RESULT/UPPER LIMIT OF NORMAL","0.3","DERIVED","CLINICAL STUDY SPONSOR"],["CDISCPILOT01","LB","01-701-1028","LBSEQ","     214","LBTMSHI","LAB RESULT/UPPER LIMIT OF NORMAL","0.8","DERIVED","CLINICAL STUDY SPONSOR"],["CDISCPILOT01","LB","01-701-1028","LBSEQ","     215","LBTMSHI","LAB RESULT/UPPER LIMIT OF NORMAL","0.9","DERIVED","CLINICAL STUDY SPONSOR"],["CDISCPILOT01","LB","01-701-1028","LBSEQ","     216","LBTMSHI","LAB RESULT/UPPER LIMIT OF NORMAL","0.8","DERIVED","CLINICAL STUDY SPONSOR"],["CDISCPILOT01","LB","01-701-1028","LBSEQ","     217","LBTMSHI","LAB RESULT/UPPER LIMIT OF NORMAL","0.5","DERIVED","CLINICAL STUDY SPONSOR"],["CDISCPILOT01","LB","01-701-1028","LBSEQ","     219","LBTMSHI","LAB RESULT/UPPER LIMIT OF NORMAL","1.0","DERIVED","CLINICAL STUDY SPONSOR"],["CDISCPILOT01","LB","01-701-1028","LBSEQ","     220","LBTMSHI","LAB RESULT/UPPER LIMIT OF NORMAL","0.9","DERIVED","CLINICAL STUDY SPONSOR"],["CDISCPILOT01","LB","01-701-1028","LBSEQ","     221","LBTMSHI","LAB RESULT/UPPER LIMIT OF NORMAL","1.0","DERIVED","CLINICAL STUDY SPONSOR"],["CDISCPILOT01","LB","01-701-1028","LBSEQ","     222","LBTMSHI","LAB RESULT/UPPER LIMIT OF NORMAL","0.5","DERIVED","CLINICAL STUDY SPONSOR"],["CDISCPILOT01","LB","01-701-1028","LBSEQ","     223","LBTMSHI","LAB RESULT/UPPER LIMIT OF NORMAL","1.0","DERIVED","CLINICAL STUDY SPONSOR"],["CDISCPILOT01","LB","01-701-1028","LBSEQ","     224","LBTMSHI","LAB RESULT/UPPER LIMIT OF NORMAL","0.5","DERIVED","CLINICAL STUDY SPONSOR"],["CDISCPILOT01","LB","01-701-1028","LBSEQ","     225","LBTMSHI","LAB RESULT/UPPER LIMIT OF NORMAL","0.4","DERIVED","CLINICAL STUDY SPONSOR"],["CDISCPILOT01","LB","01-701-1028","LBSEQ","     226","LBTMSHI","LAB RESULT/UPPER LIMIT OF NORMAL","0.8","DERIVED","CLINICAL STUDY SPONSOR"],["CDISCPILOT01","LB","01-701-1028","LBSEQ","     227","LBTMSHI","LAB RESULT/UPPER LIMIT OF NORMAL","0.7","DERIVED","CLINICAL STUDY SPONSOR"],["CDISCPILOT01","LB","01-701-1028","LBSEQ","     228","LBTMSHI","LAB RESULT/UPPER LIMIT OF NORMAL","0.6","DERIVED","CLINICAL STUDY SPONSOR"],["CDISCPILOT01","LB","01-701-1028","LBSEQ","     229","LBTMSHI","LAB RESULT/UPPER LIMIT OF NORMAL","0.4","DERIVED","CLINICAL STUDY SPONSOR"],["CDISCPILOT01","LB","01-701-1028","LBSEQ","     230","LBTMSHI","LAB RESULT/UPPER LIMIT OF NORMAL","0.9","DERIVED","CLINICAL STUDY SPONSOR"],["CDISCPILOT01","LB","01-701-1028","LBSEQ","     231","LBTMSHI","LAB RESULT/UPPER LIMIT OF NORMAL","0.4","DERIVED","CLINICAL STUDY SPONSOR"],["CDISCPILOT01","LB","01-701-1028","LBSEQ","     232","LBTMSHI","LAB RESULT/UPPER LIMIT OF NORMAL","0.6","DERIVED","CLINICAL STUDY SPONSOR"],["CDISCPILOT01","LB","01-701-1028","LBSEQ","     234","LBTMSHI","LAB RESULT/UPPER LIMIT OF NORMAL","0.6","DERIVED","CLINICAL STUDY SPONSOR"],["CDISCPILOT01","LB","01-701-1028","LBSEQ","     235","LBTMSHI","LAB RESULT/UPPER LIMIT OF NORMAL","0.3","DERIVED","CLINICAL STUDY SPONSOR"],["CDISCPILOT01","LB","01-701-1028","LBSEQ","     236","LBTMSHI","LAB RESULT/UPPER LIMIT OF NORMAL","0.7","DERIVED","CLINICAL STUDY SPONSOR"],["CDISCPILOT01","LB","01-701-1028","LBSEQ","     237","LBTMSHI","LAB RESULT/UPPER LIMIT OF NORMAL","0.6","DERIVED","CLINICAL STUDY SPONSOR"],["CDISCPILOT01","LB","01-701-1028","LBSEQ","     238","LBTMSHI","LAB RESULT/UPPER LIMIT OF NORMAL","0.8","DERIVED","CLINICAL STUDY SPONSOR"],["CDISCPILOT01","LB","01-701-1028","LBSEQ","     239","LBTMSHI","LAB RESULT/UPPER LIMIT OF NORMAL","0.6","DERIVED","CLINICAL STUDY SPONSOR"],["CDISCPILOT01","LB","01-701-1028","LBSEQ","     240","LBTMSHI","LAB RESULT/UPPER LIMIT OF NORMAL","0.8","DERIVED","CLINICAL STUDY SPONSOR"],["CDISCPILOT01","LB","01-701-1028","LBSEQ","     241","LBTMSHI","LAB RESULT/UPPER LIMIT OF NORMAL","0.9","DERIVED","CLINICAL STUDY SPONSOR"],["CDISCPILOT01","LB","01-701-1028","LBSEQ","     242","LBTMSHI","LAB RESULT/UPPER LIMIT OF NORMAL","0.9","DERIVED","CLINICAL STUDY SPONSOR"],["CDISCPILOT01","LB","01-701-1028","LBSEQ","     243","LBTMSHI","LAB RESULT/UPPER LIMIT OF NORMAL","0.3","DERIVED","CLINICAL STUDY SPONSOR"],["CDISCPILOT01","LB","01-701-1028","LBSEQ","     244","LBTMSHI","LAB RESULT/UPPER LIMIT OF NORMAL","0.4","DERIVED","CLINICAL STUDY SPONSOR"],["CDISCPILOT01","LB","01-701-1028","LBSEQ","     245","LBTMSHI","LAB RESULT/UPPER LIMIT OF NORMAL","0.3","DERIVED","CLINICAL STUDY SPONSOR"],["CDISCPILOT01","LB","01-701-1028","LBSEQ","     246","LBTMSHI","LAB RESULT/UPPER LIMIT OF NORMAL","0.8","DERIVED","CLINICAL STUDY SPONSOR"],["CDISCPILOT01","LB","01-701-1028","LBSEQ","     247","LBTMSHI","LAB RESULT/UPPER LIMIT OF NORMAL","0.9","DERIVED","CLINICAL STUDY SPONSOR"],["CDISCPILOT01","LB","01-701-1028","LBSEQ","     248","LBTMSHI","LAB RESULT/UPPER LIMIT OF NORMAL","0.8","DERIVED","CLINICAL STUDY SPONSOR"],["CDISCPILOT01","LB","01-701-1028","LBSEQ","     249","LBTMSHI","LAB RESULT/UPPER LIMIT OF NORMAL","0.8","DERIVED","CLINICAL STUDY SPONSOR"],["CDISCPILOT01","LB","01-701-1028","LBSEQ","     250","LBTMSHI","LAB RESULT/UPPER LIMIT OF NORMAL","1.0","DERIVED","CLINICAL STUDY SPONSOR"],["CDISCPILOT01","LB","01-701-1028","LBSEQ","     251","LBTMSHI","LAB RESULT/UPPER LIMIT OF NORMAL","0.9","DERIVED","CLINICAL STUDY SPONSOR"],["CDISCPILOT01","LB","01-701-1028","LBSEQ","     252","LBTMSHI","LAB RESULT/UPPER LIMIT OF NORMAL","1.0","DERIVED","CLINICAL STUDY SPONSOR"],["CDISCPILOT01","LB","01-701-1028","LBSEQ","     253","LBTMSHI","LAB RESULT/UPPER LIMIT OF NORMAL","0.5","DERIVED","CLINICAL STUDY SPONSOR"],["CDISCPILOT01","LB","01-701-1028","LBSEQ","     254","LBTMSHI","LAB RESULT/UPPER LIMIT OF NORMAL","0.9","DERIVED","CLINICAL STUDY SPONSOR"],["CDISCPILOT01","LB","01-701-1028","LBSEQ","     255","LBTMSHI","LAB RESULT/UPPER LIMIT OF NORMAL","0.7","DERIVED","CLINICAL STUDY SPONSOR"],["CDISCPILOT01","LB","01-701-1028","LBSEQ","     256","LBTMSHI","LAB RESULT/UPPER LIMIT OF NORMAL","0.4","DERIVED","CLINICAL STUDY SPONSOR"],["CDISCPILOT01","LB","01-701-1028","LBSEQ","     257","LBTMSHI","LAB RESULT/UPPER LIMIT OF NORMAL","0.8","DERIVED","CLINICAL STUDY SPONSOR"],["CDISCPILOT01","LB","01-701-1028","LBSEQ","     258","LBTMSHI","LAB RESULT/UPPER LIMIT OF NORMAL","0.7","DERIVED","CLINICAL STUDY SPONSOR"],["CDISCPILOT01","LB","01-701-1028","LBSEQ","     259","LBTMSHI","LAB RESULT/UPPER LIMIT OF NORMAL","0.7","DERIVED","CLINICAL STUDY SPONSOR"],["CDISCPILOT01","LB","01-701-1028","LBSEQ","     260","LBTMSHI","LAB RESULT/UPPER LIMIT OF NORMAL","0.5","DERIVED","CLINICAL STUDY SPONSOR"],["CDISCPILOT01","LB","01-701-1028","LBSEQ","     261","ENDPOINT","ENDPOINT VALUE FLAG","Y","DERIVED","CLINICAL STUDY SPONSOR"],["CDISCPILOT01","LB","01-701-1028","LBSEQ","     261","LBTMSHI","LAB RESULT/UPPER LIMIT OF NORMAL","0.9","DERIVED","CLINICAL STUDY SPONSOR"],["CDISCPILOT01","LB","01-701-1028","LBSEQ","     262","ENDPOINT","ENDPOINT VALUE FLAG","Y","DERIVED","CLINICAL STUDY SPONSOR"],["CDISCPILOT01","LB","01-701-1028","LBSEQ","     262","LBTMSHI","LAB RESULT/UPPER LIMIT OF NORMAL","0.4","DERIVED","CLINICAL STUDY SPONSOR"],["CDISCPILOT01","LB","01-701-1028","LBSEQ","     263","ENDPOINT","ENDPOINT VALUE FLAG","Y","DERIVED","CLINICAL STUDY SPONSOR"],["CDISCPILOT01","LB","01-701-1028","LBSEQ","     263","LBTMSHI","LAB RESULT/UPPER LIMIT OF NORMAL","0.7","DERIVED","CLINICAL STUDY SPONSOR"],["CDISCPILOT01","LB","01-701-1028","LBSEQ","     264","ENDPOINT","ENDPOINT VALUE FLAG","Y","DERIVED","CLINICAL STUDY SPONSOR"],["CDISCPILOT01","LB","01-701-1028","LBSEQ","     264","LBTMSHI","LAB RESULT/UPPER LIMIT OF NORMAL","0.6","DERIVED","CLINICAL STUDY SPONSOR"],["CDISCPILOT01","LB","01-701-1028","LBSEQ","     265","ENDPOINT","ENDPOINT VALUE FLAG","Y","DERIVED","CLINICAL STUDY SPONSOR"],["CDISCPILOT01","LB","01-701-1028","LBSEQ","     265","LBTMSHI","LAB RESULT/UPPER LIMIT OF NORMAL","0.2","DERIVED","CLINICAL STUDY SPONSOR"],["CDISCPILOT01","LB","01-701-1028","LBSEQ","     266","ENDPOINT","ENDPOINT VALUE FLAG","Y","DERIVED","CLINICAL STUDY SPONSOR"],["CDISCPILOT01","LB","01-701-1028","LBSEQ","     266","LBTMSHI","LAB RESULT/UPPER LIMIT OF NORMAL","0.7","DERIVED","CLINICAL STUDY SPONSOR"],["CDISCPILOT01","LB","01-701-1028","LBSEQ","     267","ENDPOINT","ENDPOINT VALUE FLAG","Y","DERIVED","CLINICAL STUDY SPONSOR"],["CDISCPILOT01","LB","01-701-1028","LBSEQ","     267","LBTMSHI","LAB RESULT/UPPER LIMIT OF NORMAL","0.5","DERIVED","CLINICAL STUDY SPONSOR"],["CDISCPILOT01","LB","01-701-1028","LBSEQ","     268","ENDPOINT","ENDPOINT VALUE FLAG","Y","DERIVED","CLINICAL STUDY SPONSOR"],["CDISCPILOT01","LB","01-701-1028","LBSEQ","     268","LBTMSHI","LAB RESULT/UPPER LIMIT OF NORMAL","0.8","DERIVED","CLINICAL STUDY SPONSOR"],["CDISCPILOT01","LB","01-701-1028","LBSEQ","     269","ENDPOINT","ENDPOINT VALUE FLAG","Y","DERIVED","CLINICAL STUDY SPONSOR"],["CDISCPILOT01","LB","01-701-1028","LBSEQ","     269","LBTMSHI","LAB RESULT/UPPER LIMIT OF NORMAL","0.6","DERIVED","CLINICAL STUDY SPONSOR"],["CDISCPILOT01","LB","01-701-1028","LBSEQ","     270","ENDPOINT","ENDPOINT VALUE FLAG","Y","DERIVED","CLINICAL STUDY SPONSOR"],["CDISCPILOT01","LB","01-701-1028","LBSEQ","     270","LBTMSHI","LAB RESULT/UPPER LIMIT OF NORMAL","0.8","DERIVED","CLINICAL STUDY SPONSOR"],["CDISCPILOT01","LB","01-701-1028","LBSEQ","     271","ENDPOINT","ENDPOINT VALUE FLAG","Y","DERIVED","CLINICAL STUDY SPONSOR"],["CDISCPILOT01","LB","01-701-1028","LBSEQ","     271","LBTMSHI","LAB RESULT/UPPER LIMIT OF NORMAL","1.0","DERIVED","CLINICAL STUDY SPONSOR"],["CDISCPILOT01","LB","01-701-1028","LBSEQ","     273","ENDPOINT","ENDPOINT VALUE FLAG","Y","DERIVED","CLINICAL STUDY SPONSOR"],["CDISCPILOT01","LB","01-701-1028","LBSEQ","     273","LBTMSHI","LAB RESULT/UPPER LIMIT OF NORMAL","0.9","DERIVED","CLINICAL STUDY SPONSOR"],["CDISCPILOT01","LB","01-701-1028","LBSEQ","     274","ENDPOINT","ENDPOINT VALUE FLAG","Y","DERIVED","CLINICAL STUDY SPONSOR"],["CDISCPILOT01","LB","01-701-1028","LBSEQ","     274","LBTMSHI","LAB RESULT/UPPER LIMIT OF NORMAL","0.2","DERIVED","CLINICAL STUDY SPONSOR"],["CDISCPILOT01","LB","01-701-1028","LBSEQ","     275","ENDPOINT","ENDPOINT VALUE FLAG","Y","DERIVED","CLINICAL STUDY SPONSOR"],["CDISCPILOT01","LB","01-701-1028","LBSEQ","     275","LBTMSHI","LAB RESULT/UPPER LIMIT OF NORMAL","0.5","DERIVED","CLINICAL STUDY SPONSOR"],["CDISCPILOT01","LB","01-701-1028","LBSEQ","     276","ENDPOINT","ENDPOINT VALUE FLAG","Y","DERIVED","CLINICAL STUDY SPONSOR"],["CDISCPILOT01","LB","01-701-1028","LBSEQ","     276","LBTMSHI","LAB RESULT/UPPER LIMIT OF NORMAL","0.4","DERIVED","CLINICAL STUDY SPONSOR"],["CDISCPILOT01","LB","01-701-1028","LBSEQ","     277","ENDPOINT","ENDPOINT VALUE FLAG","Y","DERIVED","CLINICAL STUDY SPONSOR"],["CDISCPILOT01","LB","01-701-1028","LBSEQ","     277","LBTMSHI","LAB RESULT/UPPER LIMIT OF NORMAL","0.9","DERIVED","CLINICAL STUDY SPONSOR"],["CDISCPILOT01","LB","01-701-1028","LBSEQ","     278","ENDPOINT","ENDPOINT VALUE FLAG","Y","DERIVED","CLINICAL STUDY SPONSOR"],["CDISCPILOT01","LB","01-701-1028","LBSEQ","     278","LBTMSHI","LAB RESULT/UPPER LIMIT OF NORMAL","0.9","DERIVED","CLINICAL STUDY SPONSOR"],["CDISCPILOT01","LB","01-701-1028","LBSEQ","     279","ENDPOINT","ENDPOINT VALUE FLAG","Y","DERIVED","CLINICAL STUDY SPONSOR"],["CDISCPILOT01","LB","01-701-1028","LBSEQ","     279","LBTMSHI","LAB RESULT/UPPER LIMIT OF NORMAL","0.9","DERIVED","CLINICAL STUDY SPONSOR"],["CDISCPILOT01","LB","01-701-1028","LBSEQ","     281","ENDPOINT","ENDPOINT VALUE FLAG","Y","DERIVED","CLINICAL STUDY SPONSOR"],["CDISCPILOT01","LB","01-701-1028","LBSEQ","     281","LBTMSHI","LAB RESULT/UPPER LIMIT OF NORMAL","0.6","DERIVED","CLINICAL STUDY SPONSOR"],["CDISCPILOT01","LB","01-701-1028","LBSEQ","     283","ENDPOINT","ENDPOINT VALUE FLAG","Y","DERIVED","CLINICAL STUDY SPONSOR"],["CDISCPILOT01","LB","01-701-1028","LBSEQ","     283","LBTMSHI","LAB RESULT/UPPER LIMIT OF NORMAL","1.0","DERIVED","CLINICAL STUDY SPONSOR"],["CDISCPILOT01","LB","01-701-1028","LBSEQ","     284","ENDPOINT","ENDPOINT VALUE FLAG","Y","DERIVED","CLINICAL STUDY SPONSOR"],["CDISCPILOT01","LB","01-701-1028","LBSEQ","     284","LBTMSHI","LAB RESULT/UPPER LIMIT OF NORMAL","0.9","DERIVED","CLINICAL STUDY SPONSOR"],["CDISCPILOT01","LB","01-701-1028","LBSEQ","     285","ENDPOINT","ENDPOINT VALUE FLAG","Y","DERIVED","CLINICAL STUDY SPONSOR"],["CDISCPILOT01","LB","01-701-1028","LBSEQ","     285","LBTMSHI","LAB RESULT/UPPER LIMIT OF NORMAL","1.0","DERIVED","CLINICAL STUDY SPONSOR"],["CDISCPILOT01","LB","01-701-1028","LBSEQ","     286","ENDPOINT","ENDPOINT VALUE FLAG","Y","DERIVED","CLINICAL STUDY SPONSOR"],["CDISCPILOT01","LB","01-701-1028","LBSEQ","     286","LBTMSHI","LAB RESULT/UPPER LIMIT OF NORMAL","0.3","DERIVED","CLINICAL STUDY SPONSOR"],["CDISCPILOT01","LB","01-701-1028","LBSEQ","     287","ENDPOINT","ENDPOINT VALUE FLAG","Y","DERIVED","CLINICAL STUDY SPONSOR"],["CDISCPILOT01","LB","01-701-1028","LBSEQ","     287","LBTMSHI","LAB RESULT/UPPER LIMIT OF NORMAL","1.0","DERIVED","CLINICAL STUDY SPONSOR"],["CDISCPILOT01","LB","01-701-1028","LBSEQ","     288","ENDPOINT","ENDPOINT VALUE FLAG","Y","DERIVED","CLINICAL STUDY SPONSOR"],["CDISCPILOT01","LB","01-701-1028","LBSEQ","     288","LBTMSHI","LAB RESULT/UPPER LIMIT OF NORMAL","0.6","DERIVED","CLINICAL STUDY SPONSOR"],["CDISCPILOT01","LB","01-701-1028","LBSEQ","     289","ENDPOINT","ENDPOINT VALUE FLAG","Y","DERIVED","CLINICAL STUDY SPONSOR"],["CDISCPILOT01","LB","01-701-1028","LBSEQ","     289","LBTMSHI","LAB RESULT/UPPER LIMIT OF NORMAL","0.5","DERIVED","CLINICAL STUDY SPONSOR"],["CDISCPILOT01","LB","01-701-1028","LBSEQ","     290","ENDPOINT","ENDPOINT VALUE FLAG","Y","DERIVED","CLINICAL STUDY SPONSOR"],["CDISCPILOT01","LB","01-701-1028","LBSEQ","     290","LBTMSHI","LAB RESULT/UPPER LIMIT OF NORMAL","0.5","DERIVED","CLINICAL STUDY SPONSOR"],["CDISCPILOT01","LB","01-701-1028","LBSEQ","     292","ENDPOINT","ENDPOINT VALUE FLAG","Y","DERIVED","CLINICAL STUDY SPONSOR"],["CDISCPILOT01","LB","01-701-1028","LBSEQ","     292","LBTMSHI","LAB RESULT/UPPER LIMIT OF NORMAL","0.8","DERIVED","CLINICAL STUDY SPONSOR"],["CDISCPILOT01","LB","01-701-1028","LBSEQ","     293","ENDPOINT","ENDPOINT VALUE FLAG","Y","DERIVED","CLINICAL STUDY SPONSOR"],["CDISCPILOT01","LB","01-701-1028","LBSEQ","     293","LBTMSHI","LAB RESULT/UPPER LIMIT OF NORMAL","0.8","DERIVED","CLINICAL STUDY SPONSOR"],["CDISCPILOT01","LB","01-701-1028","LBSEQ","     294","ENDPOINT","ENDPOINT VALUE FLAG","Y","DERIVED","CLINICAL STUDY SPONSOR"],["CDISCPILOT01","LB","01-701-1028","LBSEQ","     294","LBTMSHI","LAB RESULT/UPPER LIMIT OF NORMAL","1.0","DERIVED","CLINICAL STUDY SPONSOR"],["CDISCPILOT01","LB","01-701-1028","LBSEQ","     295","ENDPOINT","ENDPOINT VALUE FLAG","Y","DERIVED","CLINICAL STUDY SPONSOR"],["CDISCPILOT01","LB","01-701-1028","LBSEQ","     295","LBTMSHI","LAB RESULT/UPPER LIMIT OF NORMAL","0.7","DERIVED","CLINICAL STUDY SPONSOR"],["CDISCPILOT01","LB","01-701-1028","LBSEQ","     297","ENDPOINT","ENDPOINT VALUE FLAG","Y","DERIVED","CLINICAL STUDY SPONSOR"],["CDISCPILOT01","LB","01-701-1028","LBSEQ","     297","LBTMSHI","LAB RESULT/UPPER LIMIT OF NORMAL","0.4","DERIVED","CLINICAL STUDY SPONSOR"],["CDISCPILOT01","LB","01-701-1028","LBSEQ","     298","LBTMSHI","LAB RESULT/UPPER LIMIT OF NORMAL","1.0","DERIVED","CLINICAL STUDY SPONSOR"],["CDISCPILOT01","LB","01-701-1028","LBSEQ","     299","LBTMSHI","LAB RESULT/UPPER LIMIT OF NORMAL","0.3","DERIVED","CLINICAL STUDY SPONSOR"],["CDISCPILOT01","LB","01-701-1028","LBSEQ","     300","LBTMSHI","LAB RESULT/UPPER LIMIT OF NORMAL","0.7","DERIVED","CLINICAL STUDY SPONSOR"],["CDISCPILOT01","LB","01-701-1028","LBSEQ","     301","LBTMSHI","LAB RESULT/UPPER LIMIT OF NORMAL","0.7","DERIVED","CLINICAL STUDY SPONSOR"],["CDISCPILOT01","LB","01-701-1028","LBSEQ","     302","LBTMSHI","LAB RESULT/UPPER LIMIT OF NORMAL","0.3","DERIVED","CLINICAL STUDY SPONSOR"],["CDISCPILOT01","LB","01-701-1028","LBSEQ","     303","LBTMSHI","LAB RESULT/UPPER LIMIT OF NORMAL","0.7","DERIVED","CLINICAL STUDY SPONSOR"],["CDISCPILOT01","LB","01-701-1028","LBSEQ","     304","LBTMSHI","LAB RESULT/UPPER LIMIT OF NORMAL","0.7","DERIVED","CLINICAL STUDY SPONSOR"],["CDISCPILOT01","LB","01-701-1028","LBSEQ","     305","LBTMSHI","LAB RESULT/UPPER LIMIT OF NORMAL","0.9","DERIVED","CLINICAL STUDY SPONSOR"],["CDISCPILOT01","LB","01-701-1028","LBSEQ","     306","LBTMSHI","LAB RESULT/UPPER LIMIT OF NORMAL","0.6","DERIVED","CLINICAL STUDY SPONSOR"],["CDISCPILOT01","LB","01-701-1028","LBSEQ","     307","LBTMSHI","LAB RESULT/UPPER LIMIT OF NORMAL","0.7","DERIVED","CLINICAL STUDY SPONSOR"],["CDISCPILOT01","LB","01-701-1028","LBSEQ","     308","LBTMSHI","LAB RESULT/UPPER LIMIT OF NORMAL","0.9","DERIVED","CLINICAL STUDY SPONSOR"],["CDISCPILOT01","LB","01-701-1028","LBSEQ","     309","LBTMSHI","LAB RESULT/UPPER LIMIT OF NORMAL","0.9","DERIVED","CLINICAL STUDY SPONSOR"],["CDISCPILOT01","LB","01-701-1028","LBSEQ","     310","LBTMSHI","LAB RESULT/UPPER LIMIT OF NORMAL","0.1","DERIVED","CLINICAL STUDY SPONSOR"],["CDISCPILOT01","LB","01-701-1028","LBSEQ","     311","LBTMSHI","LAB RESULT/UPPER LIMIT OF NORMAL","0.5","DERIVED","CLINICAL STUDY SPONSOR"],["CDISCPILOT01","LB","01-701-1028","LBSEQ","     312","LBTMSHI","LAB RESULT/UPPER LIMIT OF NORMAL","0.4","DERIVED","CLINICAL STUDY SPONSOR"],["CDISCPILOT01","LB","01-701-1028","LBSEQ","     313","LBTMSHI","LAB RESULT/UPPER LIMIT OF NORMAL","0.9","DERIVED","CLINICAL STUDY SPONSOR"],["CDISCPILOT01","LB","01-701-1028","LBSEQ","     314","LBTMSHI","LAB RESULT/UPPER LIMIT OF NORMAL","0.9","DERIVED","CLINICAL STUDY SPONSOR"],["CDISCPILOT01","LB","01-701-1028","LBSEQ","     315","LBTMSHI","LAB RESULT/UPPER LIMIT OF NORMAL","0.8","DERIVED","CLINICAL STUDY SPONSOR"],["CDISCPILOT01","LB","01-701-1028","LBSEQ","     316","LBTMSHI","LAB RESULT/UPPER LIMIT OF NORMAL","0.7","DERIVED","CLINICAL STUDY SPONSOR"],["CDISCPILOT01","LB","01-701-1028","LBSEQ","     318","LBTMSHI","LAB RESULT/UPPER LIMIT OF NORMAL","1.0","DERIVED","CLINICAL STUDY SPONSOR"],["CDISCPILOT01","LB","01-701-1028","LBSEQ","     319","LBTMSHI","LAB RESULT/UPPER LIMIT OF NORMAL","0.9","DERIVED","CLINICAL STUDY SPONSOR"],["CDISCPILOT01","LB","01-701-1028","LBSEQ","     320","LBTMSHI","LAB RESULT/UPPER LIMIT OF NORMAL","1.1","DERIVED","CLINICAL STUDY SPONSOR"],["CDISCPILOT01","LB","01-701-1028","LBSEQ","     321","LBTMSHI","LAB RESULT/UPPER LIMIT OF NORMAL","0.4","DERIVED","CLINICAL STUDY SPONSOR"],["CDISCPILOT01","LB","01-701-1028","LBSEQ","     322","LBTMSHI","LAB RESULT/UPPER LIMIT OF NORMAL","1.0","DERIVED","CLINICAL STUDY SPONSOR"],["CDISCPILOT01","LB","01-701-1028","LBSEQ","     323","LBTMSHI","LAB RESULT/UPPER LIMIT OF NORMAL","0.7","DERIVED","CLINICAL STUDY SPONSOR"],["CDISCPILOT01","LB","01-701-1028","LBSEQ","     324","LBTMSHI","LAB RESULT/UPPER LIMIT OF NORMAL","0.4","DERIVED","CLINICAL STUDY SPONSOR"],["CDISCPILOT01","LB","01-701-1028","LBSEQ","     325","LBTMSHI","LAB RESULT/UPPER LIMIT OF NORMAL","0.9","DERIVED","CLINICAL STUDY SPONSOR"],["CDISCPILOT01","LB","01-701-1028","LBSEQ","     326","LBTMSHI","LAB RESULT/UPPER LIMIT OF NORMAL","0.8","DERIVED","CLINICAL STUDY SPONSOR"],["CDISCPILOT01","LB","01-701-1028","LBSEQ","     327","LBTMSHI","LAB RESULT/UPPER LIMIT OF NORMAL","0.8","DERIVED","CLINICAL STUDY SPONSOR"],["CDISCPILOT01","LB","01-701-1028","LBSEQ","     328","LBTMSHI","LAB RESULT/UPPER LIMIT OF NORMAL","0.5","DERIVED","CLINICAL STUDY SPONSOR"],["CDISCPILOT01","LB","01-701-1033","LBSEQ","       1","LBTMSHI","LAB RESULT/UPPER LIMIT OF NORMAL","0.8","DERIVED","CLINICAL STUDY SPONSOR"],["CDISCPILOT01","LB","01-701-1033","LBSEQ","       2","LBTMSHI","LAB RESULT/UPPER LIMIT OF NORMAL","0.6","DERIVED","CLINICAL STUDY SPONSOR"],["CDISCPILOT01","LB","01-701-1033","LBSEQ","       3","LBTMSHI","LAB RESULT/UPPER LIMIT OF NORMAL","0.5","DERIVED","CLINICAL STUDY SPONSOR"],["CDISCPILOT01","LB","01-701-1033","LBSEQ","       4","LBTMSHI","LAB RESULT/UPPER LIMIT OF NORMAL","0.6","DERIVED","CLINICAL STUDY SPONSOR"],["CDISCPILOT01","LB","01-701-1033","LBSEQ","       5","LBTMSHI","LAB RESULT/UPPER LIMIT OF NORMAL","0.5","DERIVED","CLINICAL STUDY SPONSOR"],["CDISCPILOT01","LB","01-701-1033","LBSEQ","       6","LBTMSHI","LAB RESULT/UPPER LIMIT OF NORMAL","0.7","DERIVED","CLINICAL STUDY SPONSOR"],["CDISCPILOT01","LB","01-701-1033","LBSEQ","       7","LBTMSHI","LAB RESULT/UPPER LIMIT OF NORMAL","0.7","DERIVED","CLINICAL STUDY SPONSOR"],["CDISCPILOT01","LB","01-701-1033","LBSEQ","       8","LBTMSHI","LAB RESULT/UPPER LIMIT OF NORMAL","0.8","DERIVED","CLINICAL STUDY SPONSOR"],["CDISCPILOT01","LB","01-701-1033","LBSEQ","       9","LBTMSHI","LAB RESULT/UPPER LIMIT OF NORMAL","0.7","DERIVED","CLINICAL STUDY SPONSOR"],["CDISCPILOT01","LB","01-701-1033","LBSEQ","      10","LBTMSHI","LAB RESULT/UPPER LIMIT OF NORMAL","0.6","DERIVED","CLINICAL STUDY SPONSOR"],["CDISCPILOT01","LB","01-701-1033","LBSEQ","      11","LBTMSHI","LAB RESULT/UPPER LIMIT OF NORMAL","1.0","DERIVED","CLINICAL STUDY SPONSOR"],["CDISCPILOT01","LB","01-701-1033","LBSEQ","      13","LBTMSHI","LAB RESULT/UPPER LIMIT OF NORMAL","0.9","DERIVED","CLINICAL STUDY SPONSOR"],["CDISCPILOT01","LB","01-701-1033","LBSEQ","      14","LBTMSHI","LAB RESULT/UPPER LIMIT OF NORMAL","0.1","DERIVED","CLINICAL STUDY SPONSOR"],["CDISCPILOT01","LB","01-701-1033","LBSEQ","      15","LBTMSHI","LAB RESULT/UPPER LIMIT OF NORMAL","0.4","DERIVED","CLINICAL STUDY SPONSOR"],["CDISCPILOT01","LB","01-701-1033","LBSEQ","      16","LBTMSHI","LAB RESULT/UPPER LIMIT OF NORMAL","0.4","DERIVED","CLINICAL STUDY SPONSOR"],["CDISCPILOT01","LB","01-701-1033","LBSEQ","      17","LBTMSHI","LAB RESULT/UPPER LIMIT OF NORMAL","1.0","DERIVED","CLINICAL STUDY SPONSOR"],["CDISCPILOT01","LB","01-701-1033","LBSEQ","      18","LBTMSHI","LAB RESULT/UPPER LIMIT OF NORMAL","0.9","DERIVED","CLINICAL STUDY SPONSOR"],["CDISCPILOT01","LB","01-701-1033","LBSEQ","      19","LBTMSHI","LAB RESULT/UPPER LIMIT OF NORMAL","0.8","DERIVED","CLINICAL STUDY SPONSOR"],["CDISCPILOT01","LB","01-701-1033","LBSEQ","      21","LBTMSHI","LAB RESULT/UPPER LIMIT OF NORMAL","1.0","DERIVED","CLINICAL STUDY SPONSOR"],["CDISCPILOT01","LB","01-701-1033","LBSEQ","      22","LBTMSHI","LAB RESULT/UPPER LIMIT OF NORMAL","0.9","DERIVED","CLINICAL STUDY SPONSOR"],["CDISCPILOT01","LB","01-701-1033","LBSEQ","      23","LBTMSHI","LAB RESULT/UPPER LIMIT OF NORMAL","0.8","DERIVED","CLINICAL STUDY SPONSOR"],["CDISCPILOT01","LB","01-701-1033","LBSEQ","      24","LBTMSHI","LAB RESULT/UPPER LIMIT OF NORMAL","1.0","DERIVED","CLINICAL STUDY SPONSOR"],["CDISCPILOT01","LB","01-701-1033","LBSEQ","      25","LBTMSHI","LAB RESULT/UPPER LIMIT OF NORMAL","0.7","DERIVED","CLINICAL STUDY SPONSOR"],["CDISCPILOT01","LB","01-701-1033","LBSEQ","      26","LBTMSHI","LAB RESULT/UPPER LIMIT OF NORMAL","1.0","DERIVED","CLINICAL STUDY SPONSOR"],["CDISCPILOT01","LB","01-701-1033","LBSEQ","      27","LBTMSHI","LAB RESULT/UPPER LIMIT OF NORMAL","0.6","DERIVED","CLINICAL STUDY SPONSOR"],["CDISCPILOT01","LB","01-701-1033","LBSEQ","      28","LBTMSHI","LAB RESULT/UPPER LIMIT OF NORMAL","0.7","DERIVED","CLINICAL STUDY SPONSOR"],["CDISCPILOT01","LB","01-701-1033","LBSEQ","      29","LBTMSHI","LAB RESULT/UPPER LIMIT OF NORMAL","0.5","DERIVED","CLINICAL STUDY SPONSOR"],["CDISCPILOT01","LB","01-701-1033","LBSEQ","      30","LBTMSHI","LAB RESULT/UPPER LIMIT OF NORMAL","0.9","DERIVED","CLINICAL STUDY SPONSOR"],["CDISCPILOT01","LB","01-701-1033","LBSEQ","      31","LBTMSHI","LAB RESULT/UPPER LIMIT OF NORMAL","0.9","DERIVED","CLINICAL STUDY SPONSOR"],["CDISCPILOT01","LB","01-701-1033","LBSEQ","      32","LBTMSHI","LAB RESULT/UPPER LIMIT OF NORMAL","1.0","DERIVED","CLINICAL STUDY SPONSOR"],["CDISCPILOT01","LB","01-701-1033","LBSEQ","      33","LBTMSHI","LAB RESULT/UPPER LIMIT OF NORMAL","0.2","DERIVED","CLINICAL STUDY SPONSOR"],["CDISCPILOT01","LB","01-701-1033","LBSEQ","      34","LBTMSHI","LAB RESULT/UPPER LIMIT OF NORMAL","1.0","DERIVED","CLINICAL STUDY SPONSOR"],["CDISCPILOT01","LB","01-701-1033","LBSEQ","      36","LBTMSHI","LAB RESULT/UPPER LIMIT OF NORMAL","0.6","DERIVED","CLINICAL STUDY SPONSOR"],["CDISCPILOT01","LB","01-701-1033","LBSEQ","      37","LBTMSHI","LAB RESULT/UPPER LIMIT OF NORMAL","0.9","DERIVED","CLINICAL STUDY SPONSOR"],["CDISCPILOT01","LB","01-701-1033","LBSEQ","      38","LBTMSHI","LAB RESULT/UPPER LIMIT OF NORMAL","0.9","DERIVED","CLINICAL STUDY SPONSOR"],["CDISCPILOT01","LB","01-701-1033","LBSEQ","      39","LBTMSHI","LAB RESULT/UPPER LIMIT OF NORMAL","0.8","DERIVED","CLINICAL STUDY SPONSOR"],["CDISCPILOT01","LB","01-701-1033","LBSEQ","      40","LBTMSHI","LAB RESULT/UPPER LIMIT OF NORMAL","1.0","DERIVED","CLINICAL STUDY SPONSOR"],["CDISCPILOT01","LB","01-701-1033","LBSEQ","      41","LBTMSHI","LAB RESULT/UPPER LIMIT OF NORMAL","0.7","DERIVED","CLINICAL STUDY SPONSOR"],["CDISCPILOT01","LB","01-701-1033","LBSEQ","      42","LBTMSHI","LAB RESULT/UPPER LIMIT OF NORMAL","0.5","DERIVED","CLINICAL STUDY SPONSOR"],["CDISCPILOT01","LB","01-701-1033","LBSEQ","      43","LBTMSHI","LAB RESULT/UPPER LIMIT OF NORMAL","0.3","DERIVED","CLINICAL STUDY SPONSOR"],["CDISCPILOT01","LB","01-701-1033","LBSEQ","      44","LBTMSHI","LAB RESULT/UPPER LIMIT OF NORMAL","0.5","DERIVED","CLINICAL STUDY SPONSOR"],["CDISCPILOT01","LB","01-701-1033","LBSEQ","      45","LBTMSHI","LAB RESULT/UPPER LIMIT OF NORMAL","0.8","DERIVED","CLINICAL STUDY SPONSOR"],["CDISCPILOT01","LB","01-701-1033","LBSEQ","      46","LBTMSHI","LAB RESULT/UPPER LIMIT OF NORMAL","0.7","DERIVED","CLINICAL STUDY SPONSOR"],["CDISCPILOT01","LB","01-701-1033","LBSEQ","      47","LBTMSHI","LAB RESULT/UPPER LIMIT OF NORMAL","0.5","DERIVED","CLINICAL STUDY SPONSOR"],["CDISCPILOT01","LB","01-701-1033","LBSEQ","      48","LBTMSHI","LAB RESULT/UPPER LIMIT OF NORMAL","1.0","DERIVED","CLINICAL STUDY SPONSOR"],["CDISCPILOT01","LB","01-701-1033","LBSEQ","      50","LBTMSHI","LAB RESULT/UPPER LIMIT OF NORMAL","0.9","DERIVED","CLINICAL STUDY SPONSOR"],["CDISCPILOT01","LB","01-701-1033","LBSEQ","      51","LBTMSHI","LAB RESULT/UPPER LIMIT OF NORMAL","0.2","DERIVED","CLINICAL STUDY SPONSOR"],["CDISCPILOT01","LB","01-701-1033","LBSEQ","      52","LBTMSHI","LAB RESULT/UPPER LIMIT OF NORMAL","0.5","DERIVED","CLINICAL STUDY SPONSOR"],["CDISCPILOT01","LB","01-701-1033","LBSEQ","      53","LBTMSHI","LAB RESULT/UPPER LIMIT OF NORMAL","0.4","DERIVED","CLINICAL STUDY SPONSOR"],["CDISCPILOT01","LB","01-701-1033","LBSEQ","      54","LBTMSHI","LAB RESULT/UPPER LIMIT OF NORMAL","1.0","DERIVED","CLINICAL STUDY SPONSOR"],["CDISCPILOT01","LB","01-701-1033","LBSEQ","      55","LBTMSHI","LAB RESULT/UPPER LIMIT OF NORMAL","1.0","DERIVED","CLINICAL STUDY SPONSOR"],["CDISCPILOT01","LB","01-701-1033","LBSEQ","      56","LBTMSHI","LAB RESULT/UPPER LIMIT OF NORMAL","0.8","DERIVED","CLINICAL STUDY SPONSOR"],["CDISCPILOT01","LB","01-701-1033","LBSEQ","      58","LBTMSHI","LAB RESULT/UPPER LIMIT OF NORMAL","0.8","DERIVED","CLINICAL STUDY SPONSOR"],["CDISCPILOT01","LB","01-701-1033","LBSEQ","      59","LBTMSHI","LAB RESULT/UPPER LIMIT OF NORMAL","0.9","DERIVED","CLINICAL STUDY SPONSOR"],["CDISCPILOT01","LB","01-701-1033","LBSEQ","      60","LBTMSHI","LAB RESULT/UPPER LIMIT OF NORMAL","0.9","DERIVED","CLINICAL STUDY SPONSOR"],["CDISCPILOT01","LB","01-701-1033","LBSEQ","      61","LBTMSHI","LAB RESULT/UPPER LIMIT OF NORMAL","1.0","DERIVED","CLINICAL STUDY SPONSOR"],["CDISCPILOT01","LB","01-701-1033","LBSEQ","      62","LBTMSHI","LAB RESULT/UPPER LIMIT OF NORMAL","0.5","DERIVED","CLINICAL STUDY SPONSOR"],["CDISCPILOT01","LB","01-701-1033","LBSEQ","      63","LBTMSHI","LAB RESULT/UPPER LIMIT OF NORMAL","1.0","DERIVED","CLINICAL STUDY SPONSOR"],["CDISCPILOT01","LB","01-701-1033","LBSEQ","      64","LBTMSHI","LAB RESULT/UPPER LIMIT OF NORMAL","0.6","DERIVED","CLINICAL STUDY SPONSOR"],["CDISCPILOT01","LB","01-701-1033","LBSEQ","      65","LBTMSHI","LAB RESULT/UPPER LIMIT OF NORMAL","0.6","DERIVED","CLINICAL STUDY SPONSOR"],["CDISCPILOT01","LB","01-701-1033","LBSEQ","      66","LBTMSHI","LAB RESULT/UPPER LIMIT OF NORMAL","0.5","DERIVED","CLINICAL STUDY SPONSOR"],["CDISCPILOT01","LB","01-701-1033","LBSEQ","      67","LBTMSHI","LAB RESULT/UPPER LIMIT OF NORMAL","0.9","DERIVED","CLINICAL STUDY SPONSOR"],["CDISCPILOT01","LB","01-701-1033","LBSEQ","      68","LBTMSHI","LAB RESULT/UPPER LIMIT OF NORMAL","0.9","DERIVED","CLINICAL STUDY SPONSOR"],["CDISCPILOT01","LB","01-701-1033","LBSEQ","      69","LBTMSHI","LAB RESULT/UPPER LIMIT OF NORMAL","1.0","DERIVED","CLINICAL STUDY SPONSOR"],["CDISCPILOT01","LB","01-701-1033","LBSEQ","      70","LBTMSHI","LAB RESULT/UPPER LIMIT OF NORMAL","0.9","DERIVED","CLINICAL STUDY SPONSOR"],["CDISCPILOT01","LB","01-701-1033","LBSEQ","      72","LBTMSHI","LAB RESULT/UPPER LIMIT OF NORMAL","0.8","DERIVED","CLINICAL STUDY SPONSOR"],["CDISCPILOT01","LB","01-701-1033","LBSEQ","      73","ENDPOINT","ENDPOINT VALUE FLAG","Y","DERIVED","CLINICAL STUDY SPONSOR"],["CDISCPILOT01","LB","01-701-1033","LBSEQ","      73","LBTMSHI","LAB RESULT/UPPER LIMIT OF NORMAL","0.9","DERIVED","CLINICAL STUDY SPONSOR"],["CDISCPILOT01","LB","01-701-1033","LBSEQ","      74","ENDPOINT","ENDPOINT VALUE FLAG","Y","DERIVED","CLINICAL STUDY SPONSOR"],["CDISCPILOT01","LB","01-701-1033","LBSEQ","      74","LBTMSHI","LAB RESULT/UPPER LIMIT OF NORMAL","0.7","DERIVED","CLINICAL STUDY SPONSOR"],["CDISCPILOT01","LB","01-701-1033","LBSEQ","      75","ENDPOINT","ENDPOINT VALUE FLAG","Y","DERIVED","CLINICAL STUDY SPONSOR"],["CDISCPILOT01","LB","01-701-1033","LBSEQ","      75","LBTMSHI","LAB RESULT/UPPER LIMIT OF NORMAL","0.4","DERIVED","CLINICAL STUDY SPONSOR"],["CDISCPILOT01","LB","01-701-1033","LBSEQ","      76","ENDPOINT","ENDPOINT VALUE FLAG","Y","DERIVED","CLINICAL STUDY SPONSOR"],["CDISCPILOT01","LB","01-701-1033","LBSEQ","      76","LBTMSHI","LAB RESULT/UPPER LIMIT OF NORMAL","0.6","DERIVED","CLINICAL STUDY SPONSOR"],["CDISCPILOT01","LB","01-701-1033","LBSEQ","      77","ENDPOINT","ENDPOINT VALUE FLAG","Y","DERIVED","CLINICAL STUDY SPONSOR"],["CDISCPILOT01","LB","01-701-1033","LBSEQ","      77","LBTMSHI","LAB RESULT/UPPER LIMIT OF NORMAL","0.5","DERIVED","CLINICAL STUDY SPONSOR"],["CDISCPILOT01","LB","01-701-1033","LBSEQ","      78","ENDPOINT","ENDPOINT VALUE FLAG","Y","DERIVED","CLINICAL STUDY SPONSOR"],["CDISCPILOT01","LB","01-701-1033","LBSEQ","      78","LBTMSHI","LAB RESULT/UPPER LIMIT OF NORMAL","0.7","DERIVED","CLINICAL STUDY SPONSOR"],["CDISCPILOT01","LB","01-701-1033","LBSEQ","      79","ENDPOINT","ENDPOINT VALUE FLAG","Y","DERIVED","CLINICAL STUDY SPONSOR"],["CDISCPILOT01","LB","01-701-1033","LBSEQ","      79","LBTMSHI","LAB RESULT/UPPER LIMIT OF NORMAL","0.7","DERIVED","CLINICAL STUDY SPONSOR"],["CDISCPILOT01","LB","01-701-1033","LBSEQ","      80","ENDPOINT","ENDPOINT VALUE FLAG","Y","DERIVED","CLINICAL STUDY SPONSOR"],["CDISCPILOT01","LB","01-701-1033","LBSEQ","      80","LBTMSHI","LAB RESULT/UPPER LIMIT OF NORMAL","0.8","DERIVED","CLINICAL STUDY SPONSOR"],["CDISCPILOT01","LB","01-701-1033","LBSEQ","      81","ENDPOINT","ENDPOINT VALUE FLAG","Y","DERIVED","CLINICAL STUDY SPONSOR"],["CDISCPILOT01","LB","01-701-1033","LBSEQ","      81","LBTMSHI","LAB RESULT/UPPER LIMIT OF NORMAL","0.7","DERIVED","CLINICAL STUDY SPONSOR"],["CDISCPILOT01","LB","01-701-1033","LBSEQ","      82","ENDPOINT","ENDPOINT VALUE FLAG","Y","DERIVED","CLINICAL STUDY SPONSOR"],["CDISCPILOT01","LB","01-701-1033","LBSEQ","      82","LBTMSHI","LAB RESULT/UPPER LIMIT OF NORMAL","0.6","DERIVED","CLINICAL STUDY SPONSOR"],["CDISCPILOT01","LB","01-701-1033","LBSEQ","      83","ENDPOINT","ENDPOINT VALUE FLAG","Y","DERIVED","CLINICAL STUDY SPONSOR"],["CDISCPILOT01","LB","01-701-1033","LBSEQ","      83","LBTMSHI","LAB RESULT/UPPER LIMIT OF NORMAL","0.9","DERIVED","CLINICAL STUDY SPONSOR"],["CDISCPILOT01","LB","01-701-1033","LBSEQ","      85","ENDPOINT","ENDPOINT VALUE FLAG","Y","DERIVED","CLINICAL STUDY SPONSOR"],["CDISCPILOT01","LB","01-701-1033","LBSEQ","      85","LBTMSHI","LAB RESULT/UPPER LIMIT OF NORMAL","0.9","DERIVED","CLINICAL STUDY SPONSOR"],["CDISCPILOT01","LB","01-701-1033","LBSEQ","      86","ENDPOINT","ENDPOINT VALUE FLAG","Y","DERIVED","CLINICAL STUDY SPONSOR"],["CDISCPILOT01","LB","01-701-1033","LBSEQ","      86","LBTMSHI","LAB RESULT/UPPER LIMIT OF NORMAL","0.3","DERIVED","CLINICAL STUDY SPONSOR"],["CDISCPILOT01","LB","01-701-1033","LBSEQ","      87","ENDPOINT","ENDPOINT VALUE FLAG","Y","DERIVED","CLINICAL STUDY SPONSOR"],["CDISCPILOT01","LB","01-701-1033","LBSEQ","      87","LBTMSHI","LAB RESULT/UPPER LIMIT OF NORMAL","0.4","DERIVED","CLINICAL STUDY SPONSOR"],["CDISCPILOT01","LB","01-701-1033","LBSEQ","      88","ENDPOINT","ENDPOINT VALUE FLAG","Y","DERIVED","CLINICAL STUDY SPONSOR"],["CDISCPILOT01","LB","01-701-1033","LBSEQ","      88","LBTMSHI","LAB RESULT/UPPER LIMIT OF NORMAL","0.4","DERIVED","CLINICAL STUDY SPONSOR"],["CDISCPILOT01","LB","01-701-1033","LBSEQ","      89","ENDPOINT","ENDPOINT VALUE FLAG","Y","DERIVED","CLINICAL STUDY SPONSOR"],["CDISCPILOT01","LB","01-701-1033","LBSEQ","      89","LBTMSHI","LAB RESULT/UPPER LIMIT OF NORMAL","0.9","DERIVED","CLINICAL STUDY SPONSOR"],["CDISCPILOT01","LB","01-701-1033","LBSEQ","      90","ENDPOINT","ENDPOINT VALUE FLAG","Y","DERIVED","CLINICAL STUDY SPONSOR"],["CDISCPILOT01","LB","01-701-1033","LBSEQ","      90","LBTMSHI","LAB RESULT/UPPER LIMIT OF NORMAL","1.0","DERIVED","CLINICAL STUDY SPONSOR"],["CDISCPILOT01","LB","01-701-1033","LBSEQ","      91","ENDPOINT","ENDPOINT VALUE FLAG","Y","DERIVED","CLINICAL STUDY SPONSOR"],["CDISCPILOT01","LB","01-701-1033","LBSEQ","      91","LBTMSHI","LAB RESULT/UPPER LIMIT OF NORMAL","0.7","DERIVED","CLINICAL STUDY SPONSOR"],["CDISCPILOT01","LB","01-701-1033","LBSEQ","      93","ENDPOINT","ENDPOINT VALUE FLAG","Y","DERIVED","CLINICAL STUDY SPONSOR"],["CDISCPILOT01","LB","01-701-1033","LBSEQ","      93","LBTMSHI","LAB RESULT/UPPER LIMIT OF NORMAL","1.0","DERIVED","CLINICAL STUDY SPONSOR"],["CDISCPILOT01","LB","01-701-1033","LBSEQ","      94","ENDPOINT","ENDPOINT VALUE FLAG","Y","DERIVED","CLINICAL STUDY SPONSOR"],["CDISCPILOT01","LB","01-701-1033","LBSEQ","      94","LBTMSHI","LAB RESULT/UPPER LIMIT OF NORMAL","0.9","DERIVED","CLINICAL STUDY SPONSOR"],["CDISCPILOT01","LB","01-701-1033","LBSEQ","      95","ENDPOINT","ENDPOINT VALUE FLAG","Y","DERIVED","CLINICAL STUDY SPONSOR"],["CDISCPILOT01","LB","01-701-1033","LBSEQ","      95","LBTMSHI","LAB RESULT/UPPER LIMIT OF NORMAL","0.9","DERIVED","CLINICAL STUDY SPONSOR"],["CDISCPILOT01","LB","01-701-1033","LBSEQ","      96","ENDPOINT","ENDPOINT VALUE FLAG","Y","DERIVED","CLINICAL STUDY SPONSOR"],["CDISCPILOT01","LB","01-701-1033","LBSEQ","      96","LBTMSHI","LAB RESULT/UPPER LIMIT OF NORMAL","0.9","DERIVED","CLINICAL STUDY SPONSOR"],["CDISCPILOT01","LB","01-701-1033","LBSEQ","      97","ENDPOINT","ENDPOINT VALUE FLAG","Y","DERIVED","CLINICAL STUDY SPONSOR"],["CDISCPILOT01","LB","01-701-1033","LBSEQ","      97","LBTMSHI","LAB RESULT/UPPER LIMIT OF NORMAL","0.5","DERIVED","CLINICAL STUDY SPONSOR"],["CDISCPILOT01","LB","01-701-1033","LBSEQ","      98","ENDPOINT","ENDPOINT VALUE FLAG","Y","DERIVED","CLINICAL STUDY SPONSOR"],["CDISCPILOT01","LB","01-701-1033","LBSEQ","      98","LBTMSHI","LAB RESULT/UPPER LIMIT OF NORMAL","1.0","DERIVED","CLINICAL STUDY SPONSOR"],["CDISCPILOT01","LB","01-701-1033","LBSEQ","      99","ENDPOINT","ENDPOINT VALUE FLAG","Y","DERIVED","CLINICAL STUDY SPONSOR"],["CDISCPILOT01","LB","01-701-1033","LBSEQ","      99","LBTMSHI","LAB RESULT/UPPER LIMIT OF NORMAL","0.6","DERIVED","CLINICAL STUDY SPONSOR"],["CDISCPILOT01","LB","01-701-1033","LBSEQ","     100","ENDPOINT","ENDPOINT VALUE FLAG","Y","DERIVED","CLINICAL STUDY SPONSOR"],["CDISCPILOT01","LB","01-701-1033","LBSEQ","     100","LBTMSHI","LAB RESULT/UPPER LIMIT OF NORMAL","0.7","DERIVED","CLINICAL STUDY SPONSOR"],["CDISCPILOT01","LB","01-701-1033","LBSEQ","     101","ENDPOINT","ENDPOINT VALUE FLAG","Y","DERIVED","CLINICAL STUDY SPONSOR"],["CDISCPILOT01","LB","01-701-1033","LBSEQ","     101","LBTMSHI","LAB RESULT/UPPER LIMIT OF NORMAL","0.4","DERIVED","CLINICAL STUDY SPONSOR"],["CDISCPILOT01","LB","01-701-1033","LBSEQ","     102","ENDPOINT","ENDPOINT VALUE FLAG","Y","DERIVED","CLINICAL STUDY SPONSOR"],["CDISCPILOT01","LB","01-701-1033","LBSEQ","     102","LBTMSHI","LAB RESULT/UPPER LIMIT OF NORMAL","0.9","DERIVED","CLINICAL STUDY SPONSOR"],["CDISCPILOT01","LB","01-701-1033","LBSEQ","     103","ENDPOINT","ENDPOINT VALUE FLAG","Y","DERIVED","CLINICAL STUDY SPONSOR"],["CDISCPILOT01","LB","01-701-1033","LBSEQ","     103","LBTMSHI","LAB RESULT/UPPER LIMIT OF NORMAL","0.9","DERIVED","CLINICAL STUDY SPONSOR"],["CDISCPILOT01","LB","01-701-1033","LBSEQ","     104","ENDPOINT","ENDPOINT VALUE FLAG","Y","DERIVED","CLINICAL STUDY SPONSOR"],["CDISCPILOT01","LB","01-701-1033","LBSEQ","     104","LBTMSHI","LAB RESULT/UPPER LIMIT OF NORMAL","1.0","DERIVED","CLINICAL STUDY SPONSOR"],["CDISCPILOT01","LB","01-701-1033","LBSEQ","     105","ENDPOINT","ENDPOINT VALUE FLAG","Y","DERIVED","CLINICAL STUDY SPONSOR"],["CDISCPILOT01","LB","01-701-1033","LBSEQ","     105","LBTMSHI","LAB RESULT/UPPER LIMIT OF NORMAL","1.0","DERIVED","CLINICAL STUDY SPONSOR"],["CDISCPILOT01","LB","01-701-1033","LBSEQ","     107","ENDPOINT","ENDPOINT VALUE FLAG","Y","DERIVED","CLINICAL STUDY SPONSOR"],["CDISCPILOT01","LB","01-701-1033","LBSEQ","     107","LBTMSHI","LAB RESULT/UPPER LIMIT OF NORMAL","0.8","DERIVED","CLINICAL STUDY SPONSOR"],["CDISCPILOT01","LB","01-701-1034","LBSEQ","       1","LBTMSHI","LAB RESULT/UPPER LIMIT OF NORMAL","0.9","DERIVED","CLINICAL STUDY SPONSOR"],["CDISCPILOT01","LB","01-701-1034","LBSEQ","       2","LBTMSHI","LAB RESULT/UPPER LIMIT OF NORMAL","0.4","DERIVED","CLINICAL STUDY SPONSOR"],["CDISCPILOT01","LB","01-701-1034","LBSEQ","       3","LBTMSHI","LAB RESULT/UPPER LIMIT OF NORMAL","0.5","DERIVED","CLINICAL STUDY SPONSOR"],["CDISCPILOT01","LB","01-701-1034","LBSEQ","       5","LBTMSHI","LAB RESULT/UPPER LIMIT OF NORMAL","0.7","DERIVED","CLINICAL STUDY SPONSOR"],["CDISCPILOT01","LB","01-701-1034","LBSEQ","       6","LBTMSHI","LAB RESULT/UPPER LIMIT OF NORMAL","0.2","DERIVED","CLINICAL STUDY SPONSOR"],["CDISCPILOT01","LB","01-701-1034","LBSEQ","       7","LBTMSHI","LAB RESULT/UPPER LIMIT OF NORMAL","0.5","DERIVED","CLINICAL STUDY SPONSOR"],["CDISCPILOT01","LB","01-701-1034","LBSEQ","       8","LBTMSHI","LAB RESULT/UPPER LIMIT OF NORMAL","0.5","DERIVED","CLINICAL STUDY SPONSOR"],["CDISCPILOT01","LB","01-701-1034","LBSEQ","       9","LBTMSHI","LAB RESULT/UPPER LIMIT OF NORMAL","1.0","DERIVED","CLINICAL STUDY SPONSOR"],["CDISCPILOT01","LB","01-701-1034","LBSEQ","      10","LBTMSHI","LAB RESULT/UPPER LIMIT OF NORMAL","1.0","DERIVED","CLINICAL STUDY SPONSOR"],["CDISCPILOT01","LB","01-701-1034","LBSEQ","      11","LBTMSHI","LAB RESULT/UPPER LIMIT OF NORMAL","0.4","DERIVED","CLINICAL STUDY SPONSOR"],["CDISCPILOT01","LB","01-701-1034","LBSEQ","      12","LBTMSHI","LAB RESULT/UPPER LIMIT OF NORMAL","0.9","DERIVED","CLINICAL STUDY SPONSOR"],["CDISCPILOT01","LB","01-701-1034","LBSEQ","      14","LBTMSHI","LAB RESULT/UPPER LIMIT OF NORMAL","0.7","DERIVED","CLINICAL STUDY SPONSOR"],["CDISCPILOT01","LB","01-701-1034","LBSEQ","      15","LBTMSHI","LAB RESULT/UPPER LIMIT OF NORMAL","0.2","DERIVED","CLINICAL STUDY SPONSOR"],["CDISCPILOT01","LB","01-701-1034","LBSEQ","      16","LBTMSHI","LAB RESULT/UPPER LIMIT OF NORMAL","0.4","DERIVED","CLINICAL STUDY SPONSOR"],["CDISCPILOT01","LB","01-701-1034","LBSEQ","      17","LBTMSHI","LAB RESULT/UPPER LIMIT OF NORMAL","0.3","DERIVED","CLINICAL STUDY SPONSOR"],["CDISCPILOT01","LB","01-701-1034","LBSEQ","      18","LBTMSHI","LAB RESULT/UPPER LIMIT OF NORMAL","0.8","DERIVED","CLINICAL STUDY SPONSOR"],["CDISCPILOT01","LB","01-701-1034","LBSEQ","      19","LBTMSHI","LAB RESULT/UPPER LIMIT OF NORMAL","0.8","DERIVED","CLINICAL STUDY SPONSOR"],["CDISCPILOT01","LB","01-701-1034","LBSEQ","      20","LBTMSHI","LAB RESULT/UPPER LIMIT OF NORMAL","0.8","DERIVED","CLINICAL STUDY SPONSOR"],["CDISCPILOT01","LB","01-701-1034","LBSEQ","      22","LBTMSHI","LAB RESULT/UPPER LIMIT OF NORMAL","0.8","DERIVED","CLINICAL STUDY SPONSOR"],["CDISCPILOT01","LB","01-701-1034","LBSEQ","      23","LBTMSHI","LAB RESULT/UPPER LIMIT OF NORMAL","1.0","DERIVED","CLINICAL STUDY SPONSOR"],["CDISCPILOT01","LB","01-701-1034","LBSEQ","      24","LBTMSHI","LAB RESULT/UPPER LIMIT OF NORMAL","0.9","DERIVED","CLINICAL STUDY SPONSOR"],["CDISCPILOT01","LB","01-701-1034","LBSEQ","      25","LBTMSHI","LAB RESULT/UPPER LIMIT OF NORMAL","1.0","DERIVED","CLINICAL STUDY SPONSOR"],["CDISCPILOT01","LB","01-701-1034","LBSEQ","      26","LBTMSHI","LAB RESULT/UPPER LIMIT OF NORMAL","0.7","DERIVED","CLINICAL STUDY SPONSOR"],["CDISCPILOT01","LB","01-701-1034","LBSEQ","      27","LBTMSHI","LAB RESULT/UPPER LIMIT OF NORMAL","1.0","DERIVED","CLINICAL STUDY SPONSOR"],["CDISCPILOT01","LB","01-701-1034","LBSEQ","      28","LBTMSHI","LAB RESULT/UPPER LIMIT OF NORMAL","0.6","DERIVED","CLINICAL STUDY SPONSOR"],["CDISCPILOT01","LB","01-701-1034","LBSEQ","      29","LBTMSHI","LAB RESULT/UPPER LIMIT OF NORMAL","0.8","DERIVED","CLINICAL STUDY SPONSOR"],["CDISCPILOT01","LB","01-701-1034","LBSEQ","      30","LBTMSHI","LAB RESULT/UPPER LIMIT OF NORMAL","0.6","DERIVED","CLINICAL STUDY SPONSOR"],["CDISCPILOT01","LB","01-701-1034","LBSEQ","      31","LBTMSHI","LAB RESULT/UPPER LIMIT OF NORMAL","0.9","DERIVED","CLINICAL STUDY SPONSOR"],["CDISCPILOT01","LB","01-701-1034","LBSEQ","      32","LBTMSHI","LAB RESULT/UPPER LIMIT OF NORMAL","0.7","DERIVED","CLINICAL STUDY SPONSOR"],["CDISCPILOT01","LB","01-701-1034","LBSEQ","      33","LBTMSHI","LAB RESULT/UPPER LIMIT OF NORMAL","1.0","DERIVED","CLINICAL STUDY SPONSOR"],["CDISCPILOT01","LB","01-701-1034","LBSEQ","      34","LBTMSHI","LAB RESULT/UPPER LIMIT OF NORMAL","0.1","DERIVED","CLINICAL STUDY SPONSOR"],["CDISCPILOT01","LB","01-701-1034","LBSEQ","      35","LBTMSHI","LAB RESULT/UPPER LIMIT OF NORMAL","0.7","DERIVED","CLINICAL STUDY SPONSOR"],["CDISCPILOT01","LB","01-701-1034","LBSEQ","      37","LBTMSHI","LAB RESULT/UPPER LIMIT OF NORMAL","0.7","DERIVED","CLINICAL STUDY SPONSOR"],["CDISCPILOT01","LB","01-701-1034","LBSEQ","      38","LBTMSHI","LAB RESULT/UPPER LIMIT OF NORMAL","0.7","DERIVED","CLINICAL STUDY SPONSOR"],["CDISCPILOT01","LB","01-701-1034","LBSEQ","      39","LBTMSHI","LAB RESULT/UPPER LIMIT OF NORMAL","0.9","DERIVED","CLINICAL STUDY SPONSOR"],["CDISCPILOT01","LB","01-701-1034","LBSEQ","      40","LBTMSHI","LAB RESULT/UPPER LIMIT OF NORMAL","0.3","DERIVED","CLINICAL STUDY SPONSOR"],["CDISCPILOT01","LB","01-701-1034","LBSEQ","      41","LBTMSHI","LAB RESULT/UPPER LIMIT OF NORMAL","0.6","DERIVED","CLINICAL STUDY SPONSOR"],["CDISCPILOT01","LB","01-701-1034","LBSEQ","      42","LBTMSHI","LAB RESULT/UPPER LIMIT OF NORMAL","0.7","DERIVED","CLINICAL STUDY SPONSOR"],["CDISCPILOT01","LB","01-701-1034","LBSEQ","      43","LBTMSHI","LAB RESULT/UPPER LIMIT OF NORMAL","0.3","DERIVED","CLINICAL STUDY SPONSOR"],["CDISCPILOT01","LB","01-701-1034","LBSEQ","      44","LBTMSHI","LAB RESULT/UPPER LIMIT OF NORMAL","0.3","DERIVED","CLINICAL STUDY SPONSOR"],["CDISCPILOT01","LB","01-701-1034","LBSEQ","      45","LBTMSHI","LAB RESULT/UPPER LIMIT OF NORMAL","0.5","DERIVED","CLINICAL STUDY SPONSOR"],["CDISCPILOT01","LB","01-701-1034","LBSEQ","      46","LBTMSHI","LAB RESULT/UPPER LIMIT OF NORMAL","1.0","DERIVED","CLINICAL STUDY SPONSOR"],["CDISCPILOT01","LB","01-701-1034","LBSEQ","      47","LBTMSHI","LAB RESULT/UPPER LIMIT OF NORMAL","0.9","DERIVED","CLINICAL STUDY SPONSOR"],["CDISCPILOT01","LB","01-701-1034","LBSEQ","      48","LBTMSHI","LAB RESULT/UPPER LIMIT OF NORMAL","0.3","DERIVED","CLINICAL STUDY SPONSOR"],["CDISCPILOT01","LB","01-701-1034","LBSEQ","      49","LBTMSHI","LAB RESULT/UPPER LIMIT OF NORMAL","0.9","DERIVED","CLINICAL STUDY SPONSOR"],["CDISCPILOT01","LB","01-701-1034","LBSEQ","      51","LBTMSHI","LAB RESULT/UPPER LIMIT OF NORMAL","0.7","DERIVED","CLINICAL STUDY SPONSOR"],["CDISCPILOT01","LB","01-701-1034","LBSEQ","      52","LBTMSHI","LAB RESULT/UPPER LIMIT OF NORMAL","0.2","DERIVED","CLINICAL STUDY SPONSOR"],["CDISCPILOT01","LB","01-701-1034","LBSEQ","      53","LBTMSHI","LAB RESULT/UPPER LIMIT OF NORMAL","0.4","DERIVED","CLINICAL STUDY SPONSOR"],["CDISCPILOT01","LB","01-701-1034","LBSEQ","      54","LBTMSHI","LAB RESULT/UPPER LIMIT OF NORMAL","0.3","DERIVED","CLINICAL STUDY SPONSOR"],["CDISCPILOT01","LB","01-701-1034","LBSEQ","      55","LBTMSHI","LAB RESULT/UPPER LIMIT OF NORMAL","0.9","DERIVED","CLINICAL STUDY SPONSOR"],["CDISCPILOT01","LB","01-701-1034","LBSEQ","      56","LBTMSHI","LAB RESULT/UPPER LIMIT OF NORMAL","0.9","DERIVED","CLINICAL STUDY SPONSOR"],["CDISCPILOT01","LB","01-701-1034","LBSEQ","      57","LBTMSHI","LAB RESULT/UPPER LIMIT OF NORMAL","0.9","DERIVED","CLINICAL STUDY SPONSOR"],["CDISCPILOT01","LB","01-701-1034","LBSEQ","      59","LBTMSHI","LAB RESULT/UPPER LIMIT OF NORMAL","0.7","DERIVED","CLINICAL STUDY SPONSOR"],["CDISCPILOT01","LB","01-701-1034","LBSEQ","      61","LBTMSHI","LAB RESULT/UPPER LIMIT OF NORMAL","1.0","DERIVED","CLINICAL STUDY SPONSOR"],["CDISCPILOT01","LB","01-701-1034","LBSEQ","      62","LBTMSHI","LAB RESULT/UPPER LIMIT OF NORMAL","0.9","DERIVED","CLINICAL STUDY SPONSOR"],["CDISCPILOT01","LB","01-701-1034","LBSEQ","      63","LBTMSHI","LAB RESULT/UPPER LIMIT OF NORMAL","1.1","DERIVED","CLINICAL STUDY SPONSOR"],["CDISCPILOT01","LB","01-701-1034","LBSEQ","      64","LBTMSHI","LAB RESULT/UPPER LIMIT OF NORMAL","0.7","DERIVED","CLINICAL STUDY SPONSOR"],["CDISCPILOT01","LB","01-701-1034","LBSEQ","      65","LBTMSHI","LAB RESULT/UPPER LIMIT OF NORMAL","1.0","DERIVED","CLINICAL STUDY SPONSOR"],["CDISCPILOT01","LB","01-701-1034","LBSEQ","      66","LBTMSHI","LAB RESULT/UPPER LIMIT OF NORMAL","0.6","DERIVED","CLINICAL STUDY SPONSOR"],["CDISCPILOT01","LB","01-701-1034","LBSEQ","      67","LBTMSHI","LAB RESULT/UPPER LIMIT OF NORMAL","0.8","DERIVED","CLINICAL STUDY SPONSOR"],["CDISCPILOT01","LB","01-701-1034","LBSEQ","      68","LBTMSHI","LAB RESULT/UPPER LIMIT OF NORMAL","0.6","DERIVED","CLINICAL STUDY SPONSOR"],["CDISCPILOT01","LB","01-701-1034","LBSEQ","      69","LBTMSHI","LAB RESULT/UPPER LIMIT OF NORMAL","0.9","DERIVED","CLINICAL STUDY SPONSOR"],["CDISCPILOT01","LB","01-701-1034","LBSEQ","      70","LBTMSHI","LAB RESULT/UPPER LIMIT OF NORMAL","0.7","DERIVED","CLINICAL STUDY SPONSOR"],["CDISCPILOT01","LB","01-701-1034","LBSEQ","      71","LBTMSHI","LAB RESULT/UPPER LIMIT OF NORMAL","1.0","DERIVED","CLINICAL STUDY SPONSOR"],["CDISCPILOT01","LB","01-701-1034","LBSEQ","      72","LBTMSHI","LAB RESULT/UPPER LIMIT OF NORMAL","0.8","DERIVED","CLINICAL STUDY SPONSOR"],["CDISCPILOT01","LB","01-701-1034","LBSEQ","      74","LBTMSHI","LAB RESULT/UPPER LIMIT OF NORMAL","0.8","DERIVED","CLINICAL STUDY SPONSOR"],["CDISCPILOT01","LB","01-701-1034","LBSEQ","      75","LBTMSHI","LAB RESULT/UPPER LIMIT OF NORMAL","0.9","DERIVED","CLINICAL STUDY SPONSOR"],["CDISCPILOT01","LB","01-701-1034","LBSEQ","      76","LBTMSHI","LAB RESULT/UPPER LIMIT OF NORMAL","0.3","DERIVED","CLINICAL STUDY SPONSOR"],["CDISCPILOT01","LB","01-701-1034","LBSEQ","      77","LBTMSHI","LAB RESULT/UPPER LIMIT OF NORMAL","0.7","DERIVED","CLINICAL STUDY SPONSOR"],["CDISCPILOT01","LB","01-701-1034","LBSEQ","      79","LBTMSHI","LAB RESULT/UPPER LIMIT OF NORMAL","0.7","DERIVED","CLINICAL STUDY SPONSOR"],["CDISCPILOT01","LB","01-701-1034","LBSEQ","      80","LBTMSHI","LAB RESULT/UPPER LIMIT OF NORMAL","0.2","DERIVED","CLINICAL STUDY SPONSOR"],["CDISCPILOT01","LB","01-701-1034","LBSEQ","      81","LBTMSHI","LAB RESULT/UPPER LIMIT OF NORMAL","0.3","DERIVED","CLINICAL STUDY SPONSOR"],["CDISCPILOT01","LB","01-701-1034","LBSEQ","      82","LBTMSHI","LAB RESULT/UPPER LIMIT OF NORMAL","0.5","DERIVED","CLINICAL STUDY SPONSOR"],["CDISCPILOT01","LB","01-701-1034","LBSEQ","      83","LBTMSHI","LAB RESULT/UPPER LIMIT OF NORMAL","1.0","DERIVED","CLINICAL STUDY SPONSOR"],["CDISCPILOT01","LB","01-701-1034","LBSEQ","      84","LBTMSHI","LAB RESULT/UPPER LIMIT OF NORMAL","0.9","DERIVED","CLINICAL STUDY SPONSOR"],["CDISCPILOT01","LB","01-701-1034","LBSEQ","      85","LBTMSHI","LAB RESULT/UPPER LIMIT OF NORMAL","0.4","DERIVED","CLINICAL STUDY SPONSOR"],["CDISCPILOT01","LB","01-701-1034","LBSEQ","      86","LBTMSHI","LAB RESULT/UPPER LIMIT OF NORMAL","0.9","DERIVED","CLINICAL STUDY SPONSOR"],["CDISCPILOT01","LB","01-701-1034","LBSEQ","      87","LBTMSHI","LAB RESULT/UPPER LIMIT OF NORMAL","0.6","DERIVED","CLINICAL STUDY SPONSOR"],["CDISCPILOT01","LB","01-701-1034","LBSEQ","      88","LBTMSHI","LAB RESULT/UPPER LIMIT OF NORMAL","0.1","DERIVED","CLINICAL STUDY SPONSOR"],["CDISCPILOT01","LB","01-701-1034","LBSEQ","      89","LBTMSHI","LAB RESULT/UPPER LIMIT OF NORMAL","0.4","DERIVED","CLINICAL STUDY SPONSOR"],["CDISCPILOT01","LB","01-701-1034","LBSEQ","      90","LBTMSHI","LAB RESULT/UPPER LIMIT OF NORMAL","0.3","DERIVED","CLINICAL STUDY SPONSOR"],["CDISCPILOT01","LB","01-701-1034","LBSEQ","      91","LBTMSHI","LAB RESULT/UPPER LIMIT OF NORMAL","0.8","DERIVED","CLINICAL STUDY SPONSOR"],["CDISCPILOT01","LB","01-701-1034","LBSEQ","      92","LBTMSHI","LAB RESULT/UPPER LIMIT OF NORMAL","0.8","DERIVED","CLINICAL STUDY SPONSOR"],["CDISCPILOT01","LB","01-701-1034","LBSEQ","      93","LBTMSHI","LAB RESULT/UPPER LIMIT OF NORMAL","0.8","DERIVED","CLINICAL STUDY SPONSOR"],["CDISCPILOT01","LB","01-701-1034","LBSEQ","      94","LBTMSHI","LAB RESULT/UPPER LIMIT OF NORMAL","0.7","DERIVED","CLINICAL STUDY SPONSOR"],["CDISCPILOT01","LB","01-701-1034","LBSEQ","      95","LBTMSHI","LAB RESULT/UPPER LIMIT OF NORMAL","1.0","DERIVED","CLINICAL STUDY SPONSOR"],["CDISCPILOT01","LB","01-701-1034","LBSEQ","      96","LBTMSHI","LAB RESULT/UPPER LIMIT OF NORMAL","0.9","DERIVED","CLINICAL STUDY SPONSOR"],["CDISCPILOT01","LB","01-701-1034","LBSEQ","      97","LBTMSHI","LAB RESULT/UPPER LIMIT OF NORMAL","1.0","DERIVED","CLINICAL STUDY SPONSOR"],["CDISCPILOT01","LB","01-701-1034","LBSEQ","      98","LBTMSHI","LAB RESULT/UPPER LIMIT OF NORMAL","0.7","DERIVED","CLINICAL STUDY SPONSOR"],["CDISCPILOT01","LB","01-701-1034","LBSEQ","      99","LBTMSHI","LAB RESULT/UPPER LIMIT OF NORMAL","1.0","DERIVED","CLINICAL STUDY SPONSOR"],["CDISCPILOT01","LB","01-701-1034","LBSEQ","     100","LBTMSHI","LAB RESULT/UPPER LIMIT OF NORMAL","0.7","DERIVED","CLINICAL STUDY SPONSOR"],["CDISCPILOT01","LB","01-701-1034","LBSEQ","     101","LBTMSHI","LAB RESULT/UPPER LIMIT OF NORMAL","0.6","DERIVED","CLINICAL STUDY SPONSOR"],["CDISCPILOT01","LB","01-701-1034","LBSEQ","     102","LBTMSHI","LAB RESULT/UPPER LIMIT OF NORMAL","0.9","DERIVED","CLINICAL STUDY SPONSOR"],["CDISCPILOT01","LB","01-701-1034","LBSEQ","     103","LBTMSHI","LAB RESULT/UPPER LIMIT OF NORMAL","0.7","DERIVED","CLINICAL STUDY SPONSOR"],["CDISCPILOT01","LB","01-701-1034","LBSEQ","     104","LBTMSHI","LAB RESULT/UPPER LIMIT OF NORMAL","0.8","DERIVED","CLINICAL STUDY SPONSOR"],["CDISCPILOT01","LB","01-701-1034","LBSEQ","     105","LBTMSHI","LAB RESULT/UPPER LIMIT OF NORMAL","0.5","DERIVED","CLINICAL STUDY SPONSOR"],["CDISCPILOT01","LB","01-701-1034","LBSEQ","     106","LBTMSHI","LAB RESULT/UPPER LIMIT OF NORMAL","0.8","DERIVED","CLINICAL STUDY SPONSOR"],["CDISCPILOT01","LB","01-701-1034","LBSEQ","     107","LBTMSHI","LAB RESULT/UPPER LIMIT OF NORMAL","0.3","DERIVED","CLINICAL STUDY SPONSOR"],["CDISCPILOT01","LB","01-701-1034","LBSEQ","     108","LBTMSHI","LAB RESULT/UPPER LIMIT OF NORMAL","0.5","DERIVED","CLINICAL STUDY SPONSOR"],["CDISCPILOT01","LB","01-701-1034","LBSEQ","     110","LBTMSHI","LAB RESULT/UPPER LIMIT OF NORMAL","0.6","DERIVED","CLINICAL STUDY SPONSOR"],["CDISCPILOT01","LB","01-701-1034","LBSEQ","     111","LBTMSHI","LAB RESULT/UPPER LIMIT OF NORMAL","0.2","DERIVED","CLINICAL STUDY SPONSOR"],["CDISCPILOT01","LB","01-701-1034","LBSEQ","     112","LBTMSHI","LAB RESULT/UPPER LIMIT OF NORMAL","0.3","DERIVED","CLINICAL STUDY SPONSOR"],["CDISCPILOT01","LB","01-701-1034","LBSEQ","     113","LBTMSHI","LAB RESULT/UPPER LIMIT OF NORMAL","0.6","DERIVED","CLINICAL STUDY SPONSOR"],["CDISCPILOT01","LB","01-701-1034","LBSEQ","     114","LBTMSHI","LAB RESULT/UPPER LIMIT OF NORMAL","0.9","DERIVED","CLINICAL STUDY SPONSOR"],["CDISCPILOT01","LB","01-701-1034","LBSEQ","     115","LBTMSHI","LAB RESULT/UPPER LIMIT OF NORMAL","0.7","DERIVED","CLINICAL STUDY SPONSOR"],["CDISCPILOT01","LB","01-701-1034","LBSEQ","     116","LBTMSHI","LAB RESULT/UPPER LIMIT OF NORMAL","0.3","DERIVED","CLINICAL STUDY SPONSOR"],["CDISCPILOT01","LB","01-701-1034","LBSEQ","     117","LBTMSHI","LAB RESULT/UPPER LIMIT OF NORMAL","0.9","DERIVED","CLINICAL STUDY SPONSOR"],["CDISCPILOT01","LB","01-701-1034","LBSEQ","     118","LBTMSHI","LAB RESULT/UPPER LIMIT OF NORMAL","0.6","DERIVED","CLINICAL STUDY SPONSOR"],["CDISCPILOT01","LB","01-701-1034","LBSEQ","     119","LBTMSHI","LAB RESULT/UPPER LIMIT OF NORMAL","0.1","DERIVED","CLINICAL STUDY SPONSOR"],["CDISCPILOT01","LB","01-701-1034","LBSEQ","     120","LBTMSHI","LAB RESULT/UPPER LIMIT OF NORMAL","0.3","DERIVED","CLINICAL STUDY SPONSOR"],["CDISCPILOT01","LB","01-701-1034","LBSEQ","     121","LBTMSHI","LAB RESULT/UPPER LIMIT OF NORMAL","0.4","DERIVED","CLINICAL STUDY SPONSOR"],["CDISCPILOT01","LB","01-701-1034","LBSEQ","     122","LBTMSHI","LAB RESULT/UPPER LIMIT OF NORMAL","0.8","DERIVED","CLINICAL STUDY SPONSOR"],["CDISCPILOT01","LB","01-701-1034","LBSEQ","     123","LBTMSHI","LAB RESULT/UPPER LIMIT OF NORMAL","0.8","DERIVED","CLINICAL STUDY SPONSOR"],["CDISCPILOT01","LB","01-701-1034","LBSEQ","     124","LBTMSHI","LAB RESULT/UPPER LIMIT OF NORMAL","0.8","DERIVED","CLINICAL STUDY SPONSOR"],["CDISCPILOT01","LB","01-701-1034","LBSEQ","     125","LBTMSHI","LAB RESULT/UPPER LIMIT OF NORMAL","0.7","DERIVED","CLINICAL STUDY SPONSOR"],["CDISCPILOT01","LB","01-701-1034","LBSEQ","     126","LBTMSHI","LAB RESULT/UPPER LIMIT OF NORMAL","1.0","DERIVED","CLINICAL STUDY SPONSOR"],["CDISCPILOT01","LB","01-701-1034","LBSEQ","     127","LBTMSHI","LAB RESULT/UPPER LIMIT OF NORMAL","0.9","DERIVED","CLINICAL STUDY SPONSOR"],["CDISCPILOT01","LB","01-701-1034","LBSEQ","     128","LBTMSHI","LAB RESULT/UPPER LIMIT OF NORMAL","1.0","DERIVED","CLINICAL STUDY SPONSOR"],["CDISCPILOT01","LB","01-701-1034","LBSEQ","     129","LBTMSHI","LAB RESULT/UPPER LIMIT OF NORMAL","0.7","DERIVED","CLINICAL STUDY SPONSOR"],["CDISCPILOT01","LB","01-701-1034","LBSEQ","     130","LBTMSHI","LAB RESULT/UPPER LIMIT OF NORMAL","1.0","DERIVED","CLINICAL STUDY SPONSOR"],["CDISCPILOT01","LB","01-701-1034","LBSEQ","     131","LBTMSHI","LAB RESULT/UPPER LIMIT OF NORMAL","0.7","DERIVED","CLINICAL STUDY SPONSOR"],["CDISCPILOT01","LB","01-701-1034","LBSEQ","     132","LBTMSHI","LAB RESULT/UPPER LIMIT OF NORMAL","0.5","DERIVED","CLINICAL STUDY SPONSOR"],["CDISCPILOT01","LB","01-701-1034","LBSEQ","     133","LBTMSHI","LAB RESULT/UPPER LIMIT OF NORMAL","0.9","DERIVED","CLINICAL STUDY SPONSOR"],["CDISCPILOT01","LB","01-701-1034","LBSEQ","     134","LBTMSHI","LAB RESULT/UPPER LIMIT OF NORMAL","0.7","DERIVED","CLINICAL STUDY SPONSOR"],["CDISCPILOT01","LB","01-701-1034","LBSEQ","     135","LBTMSHI","LAB RESULT/UPPER LIMIT OF NORMAL","0.7","DERIVED","CLINICAL STUDY SPONSOR"],["CDISCPILOT01","LB","01-701-1034","LBSEQ","     136","LBTMSHI","LAB RESULT/UPPER LIMIT OF NORMAL","1.0","DERIVED","CLINICAL STUDY SPONSOR"],["CDISCPILOT01","LB","01-701-1034","LBSEQ","     137","LBTMSHI","LAB RESULT/UPPER LIMIT OF NORMAL","0.9","DERIVED","CLINICAL STUDY SPONSOR"],["CDISCPILOT01","LB","01-701-1034","LBSEQ","     138","LBTMSHI","LAB RESULT/UPPER LIMIT OF NORMAL","0.3","DERIVED","CLINICAL STUDY SPONSOR"],["CDISCPILOT01","LB","01-701-1034","LBSEQ","     139","LBTMSHI","LAB RESULT/UPPER LIMIT OF NORMAL","0.8","DERIVED","CLINICAL STUDY SPONSOR"],["CDISCPILOT01","LB","01-701-1034","LBSEQ","     140","LBTMSHI","LAB RESULT/UPPER LIMIT OF NORMAL","0.8","DERIVED","CLINICAL STUDY SPONSOR"],["CDISCPILOT01","LB","01-701-1034","LBSEQ","     141","LBTMSHI","LAB RESULT/UPPER LIMIT OF NORMAL","0.2","DERIVED","CLINICAL STUDY SPONSOR"],["CDISCPILOT01","LB","01-701-1034","LBSEQ","     142","LBTMSHI","LAB RESULT/UPPER LIMIT OF NORMAL","0.4","DERIVED","CLINICAL STUDY SPONSOR"],["CDISCPILOT01","LB","01-701-1034","LBSEQ","     143","LBTMSHI","LAB RESULT/UPPER LIMIT OF NORMAL","0.5","DERIVED","CLINICAL STUDY SPONSOR"],["CDISCPILOT01","LB","01-701-1034","LBSEQ","     144","LBTMSHI","LAB RESULT/UPPER LIMIT OF NORMAL","1.0","DERIVED","CLINICAL STUDY SPONSOR"],["CDISCPILOT01","LB","01-701-1034","LBSEQ","     145","LBTMSHI","LAB RESULT/UPPER LIMIT OF NORMAL","1.0","DERIVED","CLINICAL STUDY SPONSOR"],["CDISCPILOT01","LB","01-701-1034","LBSEQ","     146","LBTMSHI","LAB RESULT/UPPER LIMIT OF NORMAL","0.5","DERIVED","CLINICAL STUDY SPONSOR"],["CDISCPILOT01","LB","01-701-1034","LBSEQ","     147","LBTMSHI","LAB RESULT/UPPER LIMIT OF NORMAL","0.9","DERIVED","CLINICAL STUDY SPONSOR"],["CDISCPILOT01","LB","01-701-1034","LBSEQ","     148","LBTMSHI","LAB RESULT/UPPER LIMIT OF NORMAL","0.6","DERIVED","CLINICAL STUDY SPONSOR"],["CDISCPILOT01","LB","01-701-1034","LBSEQ","     149","LBTMSHI","LAB RESULT/UPPER LIMIT OF NORMAL","0.2","DERIVED","CLINICAL STUDY SPONSOR"],["CDISCPILOT01","LB","01-701-1034","LBSEQ","     150","LBTMSHI","LAB RESULT/UPPER LIMIT OF NORMAL","0.3","DERIVED","CLINICAL STUDY SPONSOR"],["CDISCPILOT01","LB","01-701-1034","LBSEQ","     151","LBTMSHI","LAB RESULT/UPPER LIMIT OF NORMAL","0.3","DERIVED","CLINICAL STUDY SPONSOR"],["CDISCPILOT01","LB","01-701-1034","LBSEQ","     152","LBTMSHI","LAB RESULT/UPPER LIMIT OF NORMAL","0.8","DERIVED","CLINICAL STUDY SPONSOR"],["CDISCPILOT01","LB","01-701-1034","LBSEQ","     153","LBTMSHI","LAB RESULT/UPPER LIMIT OF NORMAL","0.8","DERIVED","CLINICAL STUDY SPONSOR"],["CDISCPILOT01","LB","01-701-1034","LBSEQ","     154","LBTMSHI","LAB RESULT/UPPER LIMIT OF NORMAL","0.9","DERIVED","CLINICAL STUDY SPONSOR"],["CDISCPILOT01","LB","01-701-1034","LBSEQ","     155","LBTMSHI","LAB RESULT/UPPER LIMIT OF NORMAL","0.8","DERIVED","CLINICAL STUDY SPONSOR"],["CDISCPILOT01","LB","01-701-1034","LBSEQ","     156","LBTMSHI","LAB RESULT/UPPER LIMIT OF NORMAL","1.0","DERIVED","CLINICAL STUDY SPONSOR"],["CDISCPILOT01","LB","01-701-1034","LBSEQ","     157","LBTMSHI","LAB RESULT/UPPER LIMIT OF NORMAL","0.9","DERIVED","CLINICAL STUDY SPONSOR"],["CDISCPILOT01","LB","01-701-1034","LBSEQ","     158","LBTMSHI","LAB RESULT/UPPER LIMIT OF NORMAL","1.0","DERIVED","CLINICAL STUDY SPONSOR"],["CDISCPILOT01","LB","01-701-1034","LBSEQ","     159","LBTMSHI","LAB RESULT/UPPER LIMIT OF NORMAL","0.7","DERIVED","CLINICAL STUDY SPONSOR"],["CDISCPILOT01","LB","01-701-1034","LBSEQ","     160","LBTMSHI","LAB RESULT/UPPER LIMIT OF NORMAL","1.0","DERIVED","CLINICAL STUDY SPONSOR"],["CDISCPILOT01","LB","01-701-1034","LBSEQ","     161","LBTMSHI","LAB RESULT/UPPER LIMIT OF NORMAL","0.8","DERIVED","CLINICAL STUDY SPONSOR"],["CDISCPILOT01","LB","01-701-1034","LBSEQ","     162","LBTMSHI","LAB RESULT/UPPER LIMIT OF NORMAL","0.7","DERIVED","CLINICAL STUDY SPONSOR"],["CDISCPILOT01","LB","01-701-1034","LBSEQ","     163","LBTMSHI","LAB RESULT/UPPER LIMIT OF NORMAL","0.9","DERIVED","CLINICAL STUDY SPONSOR"],["CDISCPILOT01","LB","01-701-1034","LBSEQ","     164","LBTMSHI","LAB RESULT/UPPER LIMIT OF NORMAL","0.7","DERIVED","CLINICAL STUDY SPONSOR"],["CDISCPILOT01","LB","01-701-1034","LBSEQ","     165","LBTMSHI","LAB RESULT/UPPER LIMIT OF NORMAL","0.7","DERIVED","CLINICAL STUDY SPONSOR"],["CDISCPILOT01","LB","01-701-1034","LBSEQ","     166","LBTMSHI","LAB RESULT/UPPER LIMIT OF NORMAL","0.6","DERIVED","CLINICAL STUDY SPONSOR"],["CDISCPILOT01","LB","01-701-1034","LBSEQ","     167","LBTMSHI","LAB RESULT/UPPER LIMIT OF NORMAL","0.8","DERIVED","CLINICAL STUDY SPONSOR"],["CDISCPILOT01","LB","01-701-1034","LBSEQ","     168","LBTMSHI","LAB RESULT/UPPER LIMIT OF NORMAL","0.3","DERIVED","CLINICAL STUDY SPONSOR"],["CDISCPILOT01","LB","01-701-1034","LBSEQ","     169","LBTMSHI","LAB RESULT/UPPER LIMIT OF NORMAL","0.6","DERIVED","CLINICAL STUDY SPONSOR"],["CDISCPILOT01","LB","01-701-1034","LBSEQ","     170","LBTMSHI","LAB RESULT/UPPER LIMIT OF NORMAL","0.7","DERIVED","CLINICAL STUDY SPONSOR"],["CDISCPILOT01","LB","01-701-1034","LBSEQ","     171","LBTMSHI","LAB RESULT/UPPER LIMIT OF NORMAL","0.1","DERIVED","CLINICAL STUDY SPONSOR"],["CDISCPILOT01","LB","01-701-1034","LBSEQ","     172","LBTMSHI","LAB RESULT/UPPER LIMIT OF NORMAL","0.4","DERIVED","CLINICAL STUDY SPONSOR"],["CDISCPILOT01","LB","01-701-1034","LBSEQ","     173","LBTMSHI","LAB RESULT/UPPER LIMIT OF NORMAL","0.8","DERIVED","CLINICAL STUDY SPONSOR"],["CDISCPILOT01","LB","01-701-1034","LBSEQ","     174","LBTMSHI","LAB RESULT/UPPER LIMIT OF NORMAL","0.9","DERIVED","CLINICAL STUDY SPONSOR"],["CDISCPILOT01","LB","01-701-1034","LBSEQ","     175","LBTMSHI","LAB RESULT/UPPER LIMIT OF NORMAL","0.9","DERIVED","CLINICAL STUDY SPONSOR"],["CDISCPILOT01","LB","01-701-1034","LBSEQ","     176","LBTMSHI","LAB RESULT/UPPER LIMIT OF NORMAL","0.4","DERIVED","CLINICAL STUDY SPONSOR"],["CDISCPILOT01","LB","01-701-1034","LBSEQ","     177","LBTMSHI","LAB RESULT/UPPER LIMIT OF NORMAL","0.9","DERIVED","CLINICAL STUDY SPONSOR"],["CDISCPILOT01","LB","01-701-1034","LBSEQ","     179","LBTMSHI","LAB RESULT/UPPER LIMIT OF NORMAL","0.8","DERIVED","CLINICAL STUDY SPONSOR"],["CDISCPILOT01","LB","01-701-1034","LBSEQ","     180","LBTMSHI","LAB RESULT/UPPER LIMIT OF NORMAL","0.2","DERIVED","CLINICAL STUDY SPONSOR"],["CDISCPILOT01","LB","01-701-1034","LBSEQ","     181","LBTMSHI","LAB RESULT/UPPER LIMIT OF NORMAL","0.3","DERIVED","CLINICAL STUDY SPONSOR"],["CDISCPILOT01","LB","01-701-1034","LBSEQ","     182","LBTMSHI","LAB RESULT/UPPER LIMIT OF NORMAL","0.4","DERIVED","CLINICAL STUDY SPONSOR"],["CDISCPILOT01","LB","01-701-1034","LBSEQ","     183","LBTMSHI","LAB RESULT/UPPER LIMIT OF NORMAL","0.8","DERIVED","CLINICAL STUDY SPONSOR"],["CDISCPILOT01","LB","01-701-1034","LBSEQ","     184","LBTMSHI","LAB RESULT/UPPER LIMIT OF NORMAL","0.8","DERIVED","CLINICAL STUDY SPONSOR"],["CDISCPILOT01","LB","01-701-1034","LBSEQ","     185","LBTMSHI","LAB RESULT/UPPER LIMIT OF NORMAL","0.8","DERIVED","CLINICAL STUDY SPONSOR"],["CDISCPILOT01","LB","01-701-1034","LBSEQ","     187","LBTMSHI","LAB RESULT/UPPER LIMIT OF NORMAL","0.9","DERIVED","CLINICAL STUDY SPONSOR"],["CDISCPILOT01","LB","01-701-1034","LBSEQ","     188","LBTMSHI","LAB RESULT/UPPER LIMIT OF NORMAL","1.0","DERIVED","CLINICAL STUDY SPONSOR"],["CDISCPILOT01","LB","01-701-1034","LBSEQ","     189","LBTMSHI","LAB RESULT/UPPER LIMIT OF NORMAL","0.9","DERIVED","CLINICAL STUDY SPONSOR"],["CDISCPILOT01","LB","01-701-1034","LBSEQ","     190","LBTMSHI","LAB RESULT/UPPER LIMIT OF NORMAL","1.0","DERIVED","CLINICAL STUDY SPONSOR"],["CDISCPILOT01","LB","01-701-1034","LBSEQ","     191","LBTMSHI","LAB RESULT/UPPER LIMIT OF NORMAL","0.4","DERIVED","CLINICAL STUDY SPONSOR"],["CDISCPILOT01","LB","01-701-1034","LBSEQ","     192","LBTMSHI","LAB RESULT/UPPER LIMIT OF NORMAL","1.0","DERIVED","CLINICAL STUDY SPONSOR"],["CDISCPILOT01","LB","01-701-1034","LBSEQ","     193","LBTMSHI","LAB RESULT/UPPER LIMIT OF NORMAL","0.6","DERIVED","CLINICAL STUDY SPONSOR"],["CDISCPILOT01","LB","01-701-1034","LBSEQ","     194","LBTMSHI","LAB RESULT/UPPER LIMIT OF NORMAL","0.9","DERIVED","CLINICAL STUDY SPONSOR"],["CDISCPILOT01","LB","01-701-1034","LBSEQ","     195","LBTMSHI","LAB RESULT/UPPER LIMIT OF NORMAL","0.7","DERIVED","CLINICAL STUDY SPONSOR"],["CDISCPILOT01","LB","01-701-1034","LBSEQ","     196","LBTMSHI","LAB RESULT/UPPER LIMIT OF NORMAL","0.9","DERIVED","CLINICAL STUDY SPONSOR"],["CDISCPILOT01","LB","01-701-1034","LBSEQ","     197","LBTMSHI","LAB RESULT/UPPER LIMIT OF NORMAL","0.7","DERIVED","CLINICAL STUDY SPONSOR"],["CDISCPILOT01","LB","01-701-1034","LBSEQ","     198","LBTMSHI","LAB RESULT/UPPER LIMIT OF NORMAL","1.0","DERIVED","CLINICAL STUDY SPONSOR"],["CDISCPILOT01","LB","01-701-1034","LBSEQ","     199","LBTMSHI","LAB RESULT/UPPER LIMIT OF NORMAL","0.7","DERIVED","CLINICAL STUDY SPONSOR"],["CDISCPILOT01","LB","01-701-1034","LBSEQ","     201","LBTMSHI","LAB RESULT/UPPER LIMIT OF NORMAL","0.7","DERIVED","CLINICAL STUDY SPONSOR"],["CDISCPILOT01","LB","01-701-1034","LBSEQ","     202","LBTMSHI","LAB RESULT/UPPER LIMIT OF NORMAL","0.8","DERIVED","CLINICAL STUDY SPONSOR"],["CDISCPILOT01","LB","01-701-1034","LBSEQ","     203","LBTMSHI","LAB RESULT/UPPER LIMIT OF NORMAL","0.3","DERIVED","CLINICAL STUDY SPONSOR"],["CDISCPILOT01","LB","01-701-1034","LBSEQ","     204","LBTMSHI","LAB RESULT/UPPER LIMIT OF NORMAL","0.7","DERIVED","CLINICAL STUDY SPONSOR"],["CDISCPILOT01","LB","01-701-1034","LBSEQ","     205","LBTMSHI","LAB RESULT/UPPER LIMIT OF NORMAL","0.6","DERIVED","CLINICAL STUDY SPONSOR"],["CDISCPILOT01","LB","01-701-1034","LBSEQ","     206","LBTMSHI","LAB RESULT/UPPER LIMIT OF NORMAL","0.2","DERIVED","CLINICAL STUDY SPONSOR"],["CDISCPILOT01","LB","01-701-1034","LBSEQ","     207","LBTMSHI","LAB RESULT/UPPER LIMIT OF NORMAL","0.3","DERIVED","CLINICAL STUDY SPONSOR"],["CDISCPILOT01","LB","01-701-1034","LBSEQ","     208","LBTMSHI","LAB RESULT/UPPER LIMIT OF NORMAL","0.6","DERIVED","CLINICAL STUDY SPONSOR"],["CDISCPILOT01","LB","01-701-1034","LBSEQ","     209","LBTMSHI","LAB RESULT/UPPER LIMIT OF NORMAL","0.9","DERIVED","CLINICAL STUDY SPONSOR"],["CDISCPILOT01","LB","01-701-1034","LBSEQ","     210","LBTMSHI","LAB RESULT/UPPER LIMIT OF NORMAL","0.9","DERIVED","CLINICAL STUDY SPONSOR"],["CDISCPILOT01","LB","01-701-1034","LBSEQ","     211","LBTMSHI","LAB RESULT/UPPER LIMIT OF NORMAL","0.3","DERIVED","CLINICAL STUDY SPONSOR"],["CDISCPILOT01","LB","01-701-1034","LBSEQ","     212","LBTMSHI","LAB RESULT/UPPER LIMIT OF NORMAL","0.9","DERIVED","CLINICAL STUDY SPONSOR"],["CDISCPILOT01","LB","01-701-1034","LBSEQ","     213","LBTMSHI","LAB RESULT/UPPER LIMIT OF NORMAL","0.8","DERIVED","CLINICAL STUDY SPONSOR"],["CDISCPILOT01","LB","01-701-1034","LBSEQ","     214","LBTMSHI","LAB RESULT/UPPER LIMIT OF NORMAL","0.2","DERIVED","CLINICAL STUDY SPONSOR"],["CDISCPILOT01","LB","01-701-1034","LBSEQ","     215","LBTMSHI","LAB RESULT/UPPER LIMIT OF NORMAL","0.4","DERIVED","CLINICAL STUDY SPONSOR"],["CDISCPILOT01","LB","01-701-1034","LBSEQ","     216","LBTMSHI","LAB RESULT/UPPER LIMIT OF NORMAL","0.4","DERIVED","CLINICAL STUDY SPONSOR"],["CDISCPILOT01","LB","01-701-1034","LBSEQ","     217","LBTMSHI","LAB RESULT/UPPER LIMIT OF NORMAL","0.8","DERIVED","CLINICAL STUDY SPONSOR"],["CDISCPILOT01","LB","01-701-1034","LBSEQ","     218","LBTMSHI","LAB RESULT/UPPER LIMIT OF NORMAL","0.8","DERIVED","CLINICAL STUDY SPONSOR"],["CDISCPILOT01","LB","01-701-1034","LBSEQ","     219","LBTMSHI","LAB RESULT/UPPER LIMIT OF NORMAL","0.9","DERIVED","CLINICAL STUDY SPONSOR"],["CDISCPILOT01","LB","01-701-1034","LBSEQ","     220","LBTMSHI","LAB RESULT/UPPER LIMIT OF NORMAL","0.6","DERIVED","CLINICAL STUDY SPONSOR"],["CDISCPILOT01","LB","01-701-1034","LBSEQ","     222","LBTMSHI","LAB RESULT/UPPER LIMIT OF NORMAL","1.0","DERIVED","CLINICAL STUDY SPONSOR"],["CDISCPILOT01","LB","01-701-1034","LBSEQ","     223","LBTMSHI","LAB RESULT/UPPER LIMIT OF NORMAL","0.9","DERIVED","CLINICAL STUDY SPONSOR"],["CDISCPILOT01","LB","01-701-1034","LBSEQ","     224","LBTMSHI","LAB RESULT/UPPER LIMIT OF NORMAL","1.0","DERIVED","CLINICAL STUDY SPONSOR"],["CDISCPILOT01","LB","01-701-1034","LBSEQ","     225","LBTMSHI","LAB RESULT/UPPER LIMIT OF NORMAL","0.6","DERIVED","CLINICAL STUDY SPONSOR"],["CDISCPILOT01","LB","01-701-1034","LBSEQ","     226","LBTMSHI","LAB RESULT/UPPER LIMIT OF NORMAL","1.0","DERIVED","CLINICAL STUDY SPONSOR"],["CDISCPILOT01","LB","01-701-1034","LBSEQ","     227","LBTMSHI","LAB RESULT/UPPER LIMIT OF NORMAL","0.7","DERIVED","CLINICAL STUDY SPONSOR"],["CDISCPILOT01","LB","01-701-1034","LBSEQ","     228","LBTMSHI","LAB RESULT/UPPER LIMIT OF NORMAL","0.6","DERIVED","CLINICAL STUDY SPONSOR"],["CDISCPILOT01","LB","01-701-1034","LBSEQ","     229","LBTMSHI","LAB RESULT/UPPER LIMIT OF NORMAL","0.9","DERIVED","CLINICAL STUDY SPONSOR"],["CDISCPILOT01","LB","01-701-1034","LBSEQ","     230","LBTMSHI","LAB RESULT/UPPER LIMIT OF NORMAL","0.7","DERIVED","CLINICAL STUDY SPONSOR"],["CDISCPILOT01","LB","01-701-1034","LBSEQ","     231","LBTMSHI","LAB RESULT/UPPER LIMIT OF NORMAL","0.7","DERIVED","CLINICAL STUDY SPONSOR"],["CDISCPILOT01","LB","01-701-1034","LBSEQ","     232","LBTMSHI","LAB RESULT/UPPER LIMIT OF NORMAL","0.6","DERIVED","CLINICAL STUDY SPONSOR"],["CDISCPILOT01","LB","01-701-1034","LBSEQ","     233","LBTMSHI","LAB RESULT/UPPER LIMIT OF NORMAL","0.8","DERIVED","CLINICAL STUDY SPONSOR"],["CDISCPILOT01","LB","01-701-1034","LBSEQ","     234","LBTMSHI","LAB RESULT/UPPER LIMIT OF NORMAL","0.3","DERIVED","CLINICAL STUDY SPONSOR"],["CDISCPILOT01","LB","01-701-1034","LBSEQ","     235","LBTMSHI","LAB RESULT/UPPER LIMIT OF NORMAL","0.7","DERIVED","CLINICAL STUDY SPONSOR"],["CDISCPILOT01","LB","01-701-1034","LBSEQ","     236","LBTMSHI","LAB RESULT/UPPER LIMIT OF NORMAL","0.6","DERIVED","CLINICAL STUDY SPONSOR"],["CDISCPILOT01","LB","01-701-1034","LBSEQ","     237","LBTMSHI","LAB RESULT/UPPER LIMIT OF NORMAL","0.2","DERIVED","CLINICAL STUDY SPONSOR"],["CDISCPILOT01","LB","01-701-1034","LBSEQ","     238","LBTMSHI","LAB RESULT/UPPER LIMIT OF NORMAL","0.2","DERIVED","CLINICAL STUDY SPONSOR"],["CDISCPILOT01","LB","01-701-1034","LBSEQ","     239","LBTMSHI","LAB RESULT/UPPER LIMIT OF NORMAL","0.7","DERIVED","CLINICAL STUDY SPONSOR"],["CDISCPILOT01","LB","01-701-1034","LBSEQ","     240","LBTMSHI","LAB RESULT/UPPER LIMIT OF NORMAL","0.9","DERIVED","CLINICAL STUDY SPONSOR"],["CDISCPILOT01","LB","01-701-1034","LBSEQ","     241","LBTMSHI","LAB RESULT/UPPER LIMIT OF NORMAL","0.8","DERIVED","CLINICAL STUDY SPONSOR"],["CDISCPILOT01","LB","01-701-1034","LBSEQ","     242","LBTMSHI","LAB RESULT/UPPER LIMIT OF NORMAL","0.3","DERIVED","CLINICAL STUDY SPONSOR"],["CDISCPILOT01","LB","01-701-1034","LBSEQ","     243","LBTMSHI","LAB RESULT/UPPER LIMIT OF NORMAL","0.9","DERIVED","CLINICAL STUDY SPONSOR"],["CDISCPILOT01","LB","01-701-1034","LBSEQ","     244","LBTMSHI","LAB RESULT/UPPER LIMIT OF NORMAL","0.6","DERIVED","CLINICAL STUDY SPONSOR"],["CDISCPILOT01","LB","01-701-1034","LBSEQ","     245","LBTMSHI","LAB RESULT/UPPER LIMIT OF NORMAL","0.2","DERIVED","CLINICAL STUDY SPONSOR"],["CDISCPILOT01","LB","01-701-1034","LBSEQ","     246","LBTMSHI","LAB RESULT/UPPER LIMIT OF NORMAL","0.4","DERIVED","CLINICAL STUDY SPONSOR"],["CDISCPILOT01","LB","01-701-1034","LBSEQ","     247","LBTMSHI","LAB RESULT/UPPER LIMIT OF NORMAL","0.3","DERIVED","CLINICAL STUDY SPONSOR"],["CDISCPILOT01","LB","01-701-1034","LBSEQ","     248","LBTMSHI","LAB RESULT/UPPER LIMIT OF NORMAL","0.8","DERIVED","CLINICAL STUDY SPONSOR"],["CDISCPILOT01","LB","01-701-1034","LBSEQ","     249","LBTMSHI","LAB RESULT/UPPER LIMIT OF NORMAL","0.8","DERIVED","CLINICAL STUDY SPONSOR"],["CDISCPILOT01","LB","01-701-1034","LBSEQ","     250","LBTMSHI","LAB RESULT/UPPER LIMIT OF NORMAL","0.8","DERIVED","CLINICAL STUDY SPONSOR"],["CDISCPILOT01","LB","01-701-1034","LBSEQ","     251","LBTMSHI","LAB RESULT/UPPER LIMIT OF NORMAL","0.7","DERIVED","CLINICAL STUDY SPONSOR"],["CDISCPILOT01","LB","01-701-1034","LBSEQ","     253","LBTMSHI","LAB RESULT/UPPER LIMIT OF NORMAL","1.0","DERIVED","CLINICAL STUDY SPONSOR"],["CDISCPILOT01","LB","01-701-1034","LBSEQ","     254","LBTMSHI","LAB RESULT/UPPER LIMIT OF NORMAL","0.8","DERIVED","CLINICAL STUDY SPONSOR"],["CDISCPILOT01","LB","01-701-1034","LBSEQ","     255","LBTMSHI","LAB RESULT/UPPER LIMIT OF NORMAL","1.0","DERIVED","CLINICAL STUDY SPONSOR"],["CDISCPILOT01","LB","01-701-1034","LBSEQ","     256","LBTMSHI","LAB RESULT/UPPER LIMIT OF NORMAL","0.7","DERIVED","CLINICAL STUDY SPONSOR"],["CDISCPILOT01","LB","01-701-1034","LBSEQ","     257","LBTMSHI","LAB RESULT/UPPER LIMIT OF NORMAL","1.0","DERIVED","CLINICAL STUDY SPONSOR"],["CDISCPILOT01","LB","01-701-1034","LBSEQ","     258","LBTMSHI","LAB RESULT/UPPER LIMIT OF NORMAL","0.8","DERIVED","CLINICAL STUDY SPONSOR"],["CDISCPILOT01","LB","01-701-1034","LBSEQ","     259","LBTMSHI","LAB RESULT/UPPER LIMIT OF NORMAL","0.7","DERIVED","CLINICAL STUDY SPONSOR"],["CDISCPILOT01","LB","01-701-1034","LBSEQ","     260","LBTMSHI","LAB RESULT/UPPER LIMIT OF NORMAL","0.9","DERIVED","CLINICAL STUDY SPONSOR"],["CDISCPILOT01","LB","01-701-1034","LBSEQ","     261","LBTMSHI","LAB RESULT/UPPER LIMIT OF NORMAL","0.7","DERIVED","CLINICAL STUDY SPONSOR"],["CDISCPILOT01","LB","01-701-1034","LBSEQ","     262","LBTMSHI","LAB RESULT/UPPER LIMIT OF NORMAL","0.7","DERIVED","CLINICAL STUDY SPONSOR"],["CDISCPILOT01","LB","01-701-1034","LBSEQ","     263","LBTMSHI","LAB RESULT/UPPER LIMIT OF NORMAL","0.8","DERIVED","CLINICAL STUDY SPONSOR"],["CDISCPILOT01","LB","01-701-1034","LBSEQ","     264","ENDPOINT","ENDPOINT VALUE FLAG","Y","DERIVED","CLINICAL STUDY SPONSOR"],["CDISCPILOT01","LB","01-701-1034","LBSEQ","     264","LBTMSHI","LAB RESULT/UPPER LIMIT OF NORMAL","0.9","DERIVED","CLINICAL STUDY SPONSOR"],["CDISCPILOT01","LB","01-701-1034","LBSEQ","     265","ENDPOINT","ENDPOINT VALUE FLAG","Y","DERIVED","CLINICAL STUDY SPONSOR"],["CDISCPILOT01","LB","01-701-1034","LBSEQ","     265","LBTMSHI","LAB RESULT/UPPER LIMIT OF NORMAL","0.3","DERIVED","CLINICAL STUDY SPONSOR"],["CDISCPILOT01","LB","01-701-1034","LBSEQ","     266","ENDPOINT","ENDPOINT VALUE FLAG","Y","DERIVED","CLINICAL STUDY SPONSOR"],["CDISCPILOT01","LB","01-701-1034","LBSEQ","     266","LBTMSHI","LAB RESULT/UPPER LIMIT OF NORMAL","0.5","DERIVED","CLINICAL STUDY SPONSOR"],["CDISCPILOT01","LB","01-701-1034","LBSEQ","     267","ENDPOINT","ENDPOINT VALUE FLAG","Y","DERIVED","CLINICAL STUDY SPONSOR"],["CDISCPILOT01","LB","01-701-1034","LBSEQ","     267","LBTMSHI","LAB RESULT/UPPER LIMIT OF NORMAL","0.5","DERIVED","CLINICAL STUDY SPONSOR"],["CDISCPILOT01","LB","01-701-1034","LBSEQ","     268","ENDPOINT","ENDPOINT VALUE FLAG","Y","DERIVED","CLINICAL STUDY SPONSOR"],["CDISCPILOT01","LB","01-701-1034","LBSEQ","     268","LBTMSHI","LAB RESULT/UPPER LIMIT OF NORMAL","0.2","DERIVED","CLINICAL STUDY SPONSOR"],["CDISCPILOT01","LB","01-701-1034","LBSEQ","     269","ENDPOINT","ENDPOINT VALUE FLAG","Y","DERIVED","CLINICAL STUDY SPONSOR"],["CDISCPILOT01","LB","01-701-1034","LBSEQ","     269","LBTMSHI","LAB RESULT/UPPER LIMIT OF NORMAL","0.3","DERIVED","CLINICAL STUDY SPONSOR"],["CDISCPILOT01","LB","01-701-1034","LBSEQ","     270","ENDPOINT","ENDPOINT VALUE FLAG","Y","DERIVED","CLINICAL STUDY SPONSOR"],["CDISCPILOT01","LB","01-701-1034","LBSEQ","     270","LBTMSHI","LAB RESULT/UPPER LIMIT OF NORMAL","0.5","DERIVED","CLINICAL STUDY SPONSOR"],["CDISCPILOT01","LB","01-701-1034","LBSEQ","     271","ENDPOINT","ENDPOINT VALUE FLAG","Y","DERIVED","CLINICAL STUDY SPONSOR"],["CDISCPILOT01","LB","01-701-1034","LBSEQ","     271","LBTMSHI","LAB RESULT/UPPER LIMIT OF NORMAL","1.0","DERIVED","CLINICAL STUDY SPONSOR"],["CDISCPILOT01","LB","01-701-1034","LBSEQ","     272","ENDPOINT","ENDPOINT VALUE FLAG","Y","DERIVED","CLINICAL STUDY SPONSOR"],["CDISCPILOT01","LB","01-701-1034","LBSEQ","     272","LBTMSHI","LAB RESULT/UPPER LIMIT OF NORMAL","0.8","DERIVED","CLINICAL STUDY SPONSOR"],["CDISCPILOT01","LB","01-701-1034","LBSEQ","     273","ENDPOINT","ENDPOINT VALUE FLAG","Y","DERIVED","CLINICAL STUDY SPONSOR"],["CDISCPILOT01","LB","01-701-1034","LBSEQ","     273","LBTMSHI","LAB RESULT/UPPER LIMIT OF NORMAL","0.3","DERIVED","CLINICAL STUDY SPONSOR"],["CDISCPILOT01","LB","01-701-1034","LBSEQ","     274","ENDPOINT","ENDPOINT VALUE FLAG","Y","DERIVED","CLINICAL STUDY SPONSOR"],["CDISCPILOT01","LB","01-701-1034","LBSEQ","     274","LBTMSHI","LAB RESULT/UPPER LIMIT OF NORMAL","0.9","DERIVED","CLINICAL STUDY SPONSOR"],["CDISCPILOT01","LB","01-701-1034","LBSEQ","     276","ENDPOINT","ENDPOINT VALUE FLAG","Y","DERIVED","CLINICAL STUDY SPONSOR"],["CDISCPILOT01","LB","01-701-1034","LBSEQ","     276","LBTMSHI","LAB RESULT/UPPER LIMIT OF NORMAL","0.6","DERIVED","CLINICAL STUDY SPONSOR"],["CDISCPILOT01","LB","01-701-1034","LBSEQ","     277","ENDPOINT","ENDPOINT VALUE FLAG","Y","DERIVED","CLINICAL STUDY SPONSOR"],["CDISCPILOT01","LB","01-701-1034","LBSEQ","     277","LBTMSHI","LAB RESULT/UPPER LIMIT OF NORMAL","0.3","DERIVED","CLINICAL STUDY SPONSOR"],["CDISCPILOT01","LB","01-701-1034","LBSEQ","     278","ENDPOINT","ENDPOINT VALUE FLAG","Y","DERIVED","CLINICAL STUDY SPONSOR"],["CDISCPILOT01","LB","01-701-1034","LBSEQ","     278","LBTMSHI","LAB RESULT/UPPER LIMIT OF NORMAL","0.3","DERIVED","CLINICAL STUDY SPONSOR"],["CDISCPILOT01","LB","01-701-1034","LBSEQ","     279","ENDPOINT","ENDPOINT VALUE FLAG","Y","DERIVED","CLINICAL STUDY SPONSOR"],["CDISCPILOT01","LB","01-701-1034","LBSEQ","     279","LBTMSHI","LAB RESULT/UPPER LIMIT OF NORMAL","0.4","DERIVED","CLINICAL STUDY SPONSOR"],["CDISCPILOT01","LB","01-701-1034","LBSEQ","     280","ENDPOINT","ENDPOINT VALUE FLAG","Y","DERIVED","CLINICAL STUDY SPONSOR"],["CDISCPILOT01","LB","01-701-1034","LBSEQ","     280","LBTMSHI","LAB RESULT/UPPER LIMIT OF NORMAL","0.8","DERIVED","CLINICAL STUDY SPONSOR"],["CDISCPILOT01","LB","01-701-1034","LBSEQ","     281","ENDPOINT","ENDPOINT VALUE FLAG","Y","DERIVED","CLINICAL STUDY SPONSOR"],["CDISCPILOT01","LB","01-701-1034","LBSEQ","     281","LBTMSHI","LAB RESULT/UPPER LIMIT OF NORMAL","0.8","DERIVED","CLINICAL STUDY SPONSOR"],["CDISCPILOT01","LB","01-701-1034","LBSEQ","     282","ENDPOINT","ENDPOINT VALUE FLAG","Y","DERIVED","CLINICAL STUDY SPONSOR"],["CDISCPILOT01","LB","01-701-1034","LBSEQ","     282","LBTMSHI","LAB RESULT/UPPER LIMIT OF NORMAL","0.8","DERIVED","CLINICAL STUDY SPONSOR"],["CDISCPILOT01","LB","01-701-1034","LBSEQ","     284","ENDPOINT","ENDPOINT VALUE FLAG","Y","DERIVED","CLINICAL STUDY SPONSOR"],["CDISCPILOT01","LB","01-701-1034","LBSEQ","     284","LBTMSHI","LAB RESULT/UPPER LIMIT OF NORMAL","0.9","DERIVED","CLINICAL STUDY SPONSOR"],["CDISCPILOT01","LB","01-701-1034","LBSEQ","     286","ENDPOINT","ENDPOINT VALUE FLAG","Y","DERIVED","CLINICAL STUDY SPONSOR"],["CDISCPILOT01","LB","01-701-1034","LBSEQ","     286","LBTMSHI","LAB RESULT/UPPER LIMIT OF NORMAL","1.1","DERIVED","CLINICAL STUDY SPONSOR"],["CDISCPILOT01","LB","01-701-1034","LBSEQ","     287","ENDPOINT","ENDPOINT VALUE FLAG","Y","DERIVED","CLINICAL STUDY SPONSOR"],["CDISCPILOT01","LB","01-701-1034","LBSEQ","     287","LBTMSHI","LAB RESULT/UPPER LIMIT OF NORMAL","0.9","DERIVED","CLINICAL STUDY SPONSOR"],["CDISCPILOT01","LB","01-701-1034","LBSEQ","     288","ENDPOINT","ENDPOINT VALUE FLAG","Y","DERIVED","CLINICAL STUDY SPONSOR"],["CDISCPILOT01","LB","01-701-1034","LBSEQ","     288","LBTMSHI","LAB RESULT/UPPER LIMIT OF NORMAL","1.0","DERIVED","CLINICAL STUDY SPONSOR"],["CDISCPILOT01","LB","01-701-1034","LBSEQ","     289","ENDPOINT","ENDPOINT VALUE FLAG","Y","DERIVED","CLINICAL STUDY SPONSOR"],["CDISCPILOT01","LB","01-701-1034","LBSEQ","     289","LBTMSHI","LAB RESULT/UPPER LIMIT OF NORMAL","0.6","DERIVED","CLINICAL STUDY SPONSOR"],["CDISCPILOT01","LB","01-701-1034","LBSEQ","     290","ENDPOINT","ENDPOINT VALUE FLAG","Y","DERIVED","CLINICAL STUDY SPONSOR"],["CDISCPILOT01","LB","01-701-1034","LBSEQ","     290","LBTMSHI","LAB RESULT/UPPER LIMIT OF NORMAL","0.9","DERIVED","CLINICAL STUDY SPONSOR"],["CDISCPILOT01","LB","01-701-1034","LBSEQ","     291","ENDPOINT","ENDPOINT VALUE FLAG","Y","DERIVED","CLINICAL STUDY SPONSOR"],["CDISCPILOT01","LB","01-701-1034","LBSEQ","     291","LBTMSHI","LAB RESULT/UPPER LIMIT OF NORMAL","0.6","DERIVED","CLINICAL STUDY SPONSOR"],["CDISCPILOT01","LB","01-701-1034","LBSEQ","     292","ENDPOINT","ENDPOINT VALUE FLAG","Y","DERIVED","CLINICAL STUDY SPONSOR"],["CDISCPILOT01","LB","01-701-1034","LBSEQ","     292","LBTMSHI","LAB RESULT/UPPER LIMIT OF NORMAL","0.9","DERIVED","CLINICAL STUDY SPONSOR"],["CDISCPILOT01","LB","01-701-1034","LBSEQ","     293","ENDPOINT","ENDPOINT VALUE FLAG","Y","DERIVED","CLINICAL STUDY SPONSOR"],["CDISCPILOT01","LB","01-701-1034","LBSEQ","     293","LBTMSHI","LAB RESULT/UPPER LIMIT OF NORMAL","0.6","DERIVED","CLINICAL STUDY SPONSOR"],["CDISCPILOT01","LB","01-701-1034","LBSEQ","     294","ENDPOINT","ENDPOINT VALUE FLAG","Y","DERIVED","CLINICAL STUDY SPONSOR"],["CDISCPILOT01","LB","01-701-1034","LBSEQ","     294","LBTMSHI","LAB RESULT/UPPER LIMIT OF NORMAL","0.9","DERIVED","CLINICAL STUDY SPONSOR"],["CDISCPILOT01","LB","01-701-1034","LBSEQ","     295","ENDPOINT","ENDPOINT VALUE FLAG","Y","DERIVED","CLINICAL STUDY SPONSOR"],["CDISCPILOT01","LB","01-701-1034","LBSEQ","     295","LBTMSHI","LAB RESULT/UPPER LIMIT OF NORMAL","0.6","DERIVED","CLINICAL STUDY SPONSOR"],["CDISCPILOT01","LB","01-701-1034","LBSEQ","     296","ENDPOINT","ENDPOINT VALUE FLAG","Y","DERIVED","CLINICAL STUDY SPONSOR"],["CDISCPILOT01","LB","01-701-1034","LBSEQ","     296","LBTMSHI","LAB RESULT/UPPER LIMIT OF NORMAL","1.0","DERIVED","CLINICAL STUDY SPONSOR"],["CDISCPILOT01","LB","01-701-1034","LBSEQ","     297","ENDPOINT","ENDPOINT VALUE FLAG","Y","DERIVED","CLINICAL STUDY SPONSOR"],["CDISCPILOT01","LB","01-701-1034","LBSEQ","     297","LBTMSHI","LAB RESULT/UPPER LIMIT OF NORMAL","0.7","DERIVED","CLINICAL STUDY SPONSOR"],["CDISCPILOT01","LB","01-701-1034","LBSEQ","     299","ENDPOINT","ENDPOINT VALUE FLAG","Y","DERIVED","CLINICAL STUDY SPONSOR"],["CDISCPILOT01","LB","01-701-1034","LBSEQ","     299","LBTMSHI","LAB RESULT/UPPER LIMIT OF NORMAL","0.9","DERIVED","CLINICAL STUDY SPONSOR"],["CDISCPILOT01","LB","01-701-1034","LBSEQ","     300","LBTMSHI","LAB RESULT/UPPER LIMIT OF NORMAL","0.9","DERIVED","CLINICAL STUDY SPONSOR"],["CDISCPILOT01","LB","01-701-1034","LBSEQ","     301","LBTMSHI","LAB RESULT/UPPER LIMIT OF NORMAL","0.2","DERIVED","CLINICAL STUDY SPONSOR"],["CDISCPILOT01","LB","01-701-1034","LBSEQ","     302","LBTMSHI","LAB RESULT/UPPER LIMIT OF NORMAL","0.6","DERIVED","CLINICAL STUDY SPONSOR"],["CDISCPILOT01","LB","01-701-1034","LBSEQ","     304","LBTMSHI","LAB RESULT/UPPER LIMIT OF NORMAL","0.6","DERIVED","CLINICAL STUDY SPONSOR"],["CDISCPILOT01","LB","01-701-1034","LBSEQ","     305","LBTMSHI","LAB RESULT/UPPER LIMIT OF NORMAL","0.2","DERIVED","CLINICAL STUDY SPONSOR"],["CDISCPILOT01","LB","01-701-1034","LBSEQ","     306","LBTMSHI","LAB RESULT/UPPER LIMIT OF NORMAL","0.3","DERIVED","CLINICAL STUDY SPONSOR"],["CDISCPILOT01","LB","01-701-1034","LBSEQ","     307","LBTMSHI","LAB RESULT/UPPER LIMIT OF NORMAL","0.5","DERIVED","CLINICAL STUDY SPONSOR"],["CDISCPILOT01","LB","01-701-1034","LBSEQ","     308","LBTMSHI","LAB RESULT/UPPER LIMIT OF NORMAL","0.9","DERIVED","CLINICAL STUDY SPONSOR"],["CDISCPILOT01","LB","01-701-1034","LBSEQ","     309","LBTMSHI","LAB RESULT/UPPER LIMIT OF NORMAL","0.7","DERIVED","CLINICAL STUDY SPONSOR"],["CDISCPILOT01","LB","01-701-1034","LBSEQ","     310","LBTMSHI","LAB RESULT/UPPER LIMIT OF NORMAL","0.3","DERIVED","CLINICAL STUDY SPONSOR"],["CDISCPILOT01","LB","01-701-1034","LBSEQ","     311","LBTMSHI","LAB RESULT/UPPER LIMIT OF NORMAL","0.9","DERIVED","CLINICAL STUDY SPONSOR"],["CDISCPILOT01","LB","01-701-1034","LBSEQ","     312","LBTMSHI","LAB RESULT/UPPER LIMIT OF NORMAL","0.6","DERIVED","CLINICAL STUDY SPONSOR"],["CDISCPILOT01","LB","01-701-1034","LBSEQ","     313","LBTMSHI","LAB RESULT/UPPER LIMIT OF NORMAL","0.2","DERIVED","CLINICAL STUDY SPONSOR"],["CDISCPILOT01","LB","01-701-1034","LBSEQ","     314","LBTMSHI","LAB RESULT/UPPER LIMIT OF NORMAL","0.3","DERIVED","CLINICAL STUDY SPONSOR"],["CDISCPILOT01","LB","01-701-1034","LBSEQ","     315","LBTMSHI","LAB RESULT/UPPER LIMIT OF NORMAL","0.3","DERIVED","CLINICAL STUDY SPONSOR"],["CDISCPILOT01","LB","01-701-1034","LBSEQ","     316","LBTMSHI","LAB RESULT/UPPER LIMIT OF NORMAL","0.8","DERIVED","CLINICAL STUDY SPONSOR"],["CDISCPILOT01","LB","01-701-1034","LBSEQ","     317","LBTMSHI","LAB RESULT/UPPER LIMIT OF NORMAL","0.8","DERIVED","CLINICAL STUDY SPONSOR"],["CDISCPILOT01","LB","01-701-1034","LBSEQ","     318","LBTMSHI","LAB RESULT/UPPER LIMIT OF NORMAL","0.8","DERIVED","CLINICAL STUDY SPONSOR"],["CDISCPILOT01","LB","01-701-1034","LBSEQ","     319","LBTMSHI","LAB RESULT/UPPER LIMIT OF NORMAL","0.7","DERIVED","CLINICAL STUDY SPONSOR"],["CDISCPILOT01","LB","01-701-1034","LBSEQ","     320","LBTMSHI","LAB RESULT/UPPER LIMIT OF NORMAL","1.0","DERIVED","CLINICAL STUDY SPONSOR"],["CDISCPILOT01","LB","01-701-1034","LBSEQ","     321","LBTMSHI","LAB RESULT/UPPER LIMIT OF NORMAL","0.9","DERIVED","CLINICAL STUDY SPONSOR"],["CDISCPILOT01","LB","01-701-1034","LBSEQ","     322","LBTMSHI","LAB RESULT/UPPER LIMIT OF NORMAL","1.0","DERIVED","CLINICAL STUDY SPONSOR"],["CDISCPILOT01","LB","01-701-1034","LBSEQ","     323","LBTMSHI","LAB RESULT/UPPER LIMIT OF NORMAL","0.6","DERIVED","CLINICAL STUDY SPONSOR"],["CDISCPILOT01","LB","01-701-1034","LBSEQ","     324","LBTMSHI","LAB RESULT/UPPER LIMIT OF NORMAL","0.9","DERIVED","CLINICAL STUDY SPONSOR"],["CDISCPILOT01","LB","01-701-1034","LBSEQ","     325","LBTMSHI","LAB RESULT/UPPER LIMIT OF NORMAL","0.7","DERIVED","CLINICAL STUDY SPONSOR"],["CDISCPILOT01","LB","01-701-1034","LBSEQ","     326","LBTMSHI","LAB RESULT/UPPER LIMIT OF NORMAL","0.7","DERIVED","CLINICAL STUDY SPONSOR"],["CDISCPILOT01","LB","01-701-1034","LBSEQ","     327","LBTMSHI","LAB RESULT/UPPER LIMIT OF NORMAL","0.9","DERIVED","CLINICAL STUDY SPONSOR"],["CDISCPILOT01","LB","01-701-1034","LBSEQ","     328","LBTMSHI","LAB RESULT/UPPER LIMIT OF NORMAL","0.7","DERIVED","CLINICAL STUDY SPONSOR"],["CDISCPILOT01","LB","01-701-1034","LBSEQ","     329","LBTMSHI","LAB RESULT/UPPER LIMIT OF NORMAL","0.7","DERIVED","CLINICAL STUDY SPONSOR"],["CDISCPILOT01","LB","01-701-1034","LBSEQ","     330","LBTMSHI","LAB RESULT/UPPER LIMIT OF NORMAL","0.8","DERIVED","CLINICAL STUDY SPONSOR"],["CDISCPILOT01","LB","01-701-1047","LBSEQ","       1","LBTMSHI","LAB RESULT/UPPER LIMIT OF NORMAL","0.9","DERIVED","CLINICAL STUDY SPONSOR"],["CDISCPILOT01","LB","01-701-1047","LBSEQ","       2","LBTMSHI","LAB RESULT/UPPER LIMIT OF NORMAL","0.7","DERIVED","CLINICAL STUDY SPONSOR"],["CDISCPILOT01","LB","01-701-1047","LBSEQ","       3","LBTMSHI","LAB RESULT/UPPER LIMIT OF NORMAL","0.7","DERIVED","CLINICAL STUDY SPONSOR"],["CDISCPILOT01","LB","01-701-1047","LBSEQ","       4","LBTMSHI","LAB RESULT/UPPER LIMIT OF NORMAL","0.7","DERIVED","CLINICAL STUDY SPONSOR"],["CDISCPILOT01","LB","01-701-1047","LBSEQ","       5","LBTMSHI","LAB RESULT/UPPER LIMIT OF NORMAL","0.3","DERIVED","CLINICAL STUDY SPONSOR"],["CDISCPILOT01","LB","01-701-1047","LBSEQ","       6","LBTMSHI","LAB RESULT/UPPER LIMIT OF NORMAL","0.3","DERIVED","CLINICAL STUDY SPONSOR"],["CDISCPILOT01","LB","01-701-1047","LBSEQ","       7","LBTMSHI","LAB RESULT/UPPER LIMIT OF NORMAL","0.7","DERIVED","CLINICAL STUDY SPONSOR"],["CDISCPILOT01","LB","01-701-1047","LBSEQ","       8","LBTMSHI","LAB RESULT/UPPER LIMIT OF NORMAL","0.9","DERIVED","CLINICAL STUDY SPONSOR"],["CDISCPILOT01","LB","01-701-1047","LBSEQ","       9","LBTMSHI","LAB RESULT/UPPER LIMIT OF NORMAL","0.8","DERIVED","CLINICAL STUDY SPONSOR"],["CDISCPILOT01","LB","01-701-1047","LBSEQ","      10","LBTMSHI","LAB RESULT/UPPER LIMIT OF NORMAL","0.5","DERIVED","CLINICAL STUDY SPONSOR"],["CDISCPILOT01","LB","01-701-1047","LBSEQ","      11","LBTMSHI","LAB RESULT/UPPER LIMIT OF NORMAL","0.9","DERIVED","CLINICAL STUDY SPONSOR"],["CDISCPILOT01","LB","01-701-1047","LBSEQ","      13","LBTMSHI","LAB RESULT/UPPER LIMIT OF NORMAL","0.7","DERIVED","CLINICAL STUDY SPONSOR"],["CDISCPILOT01","LB","01-701-1047","LBSEQ","      14","LBTMSHI","LAB RESULT/UPPER LIMIT OF NORMAL","0.2","DERIVED","CLINICAL STUDY SPONSOR"],["CDISCPILOT01","LB","01-701-1047","LBSEQ","      15","LBTMSHI","LAB RESULT/UPPER LIMIT OF NORMAL","0.3","DERIVED","CLINICAL STUDY SPONSOR"],["CDISCPILOT01","LB","01-701-1047","LBSEQ","      16","LBTMSHI","LAB RESULT/UPPER LIMIT OF NORMAL","0.4","DERIVED","CLINICAL STUDY SPONSOR"],["CDISCPILOT01","LB","01-701-1047","LBSEQ","      17","LBTMSHI","LAB RESULT/UPPER LIMIT OF NORMAL","1.0","DERIVED","CLINICAL STUDY SPONSOR"],["CDISCPILOT01","LB","01-701-1047","LBSEQ","      18","LBTMSHI","LAB RESULT/UPPER LIMIT OF NORMAL","1.0","DERIVED","CLINICAL STUDY SPONSOR"],["CDISCPILOT01","LB","01-701-1047","LBSEQ","      19","LBTMSHI","LAB RESULT/UPPER LIMIT OF NORMAL","0.8","DERIVED","CLINICAL STUDY SPONSOR"],["CDISCPILOT01","LB","01-701-1047","LBSEQ","      21","LBTMSHI","LAB RESULT/UPPER LIMIT OF NORMAL","0.8","DERIVED","CLINICAL STUDY SPONSOR"],["CDISCPILOT01","LB","01-701-1047","LBSEQ","      22","LBTMSHI","LAB RESULT/UPPER LIMIT OF NORMAL","1.0","DERIVED","CLINICAL STUDY SPONSOR"],["CDISCPILOT01","LB","01-701-1047","LBSEQ","      23","LBTMSHI","LAB RESULT/UPPER LIMIT OF NORMAL","0.9","DERIVED","CLINICAL STUDY SPONSOR"],["CDISCPILOT01","LB","01-701-1047","LBSEQ","      24","LBTMSHI","LAB RESULT/UPPER LIMIT OF NORMAL","1.0","DERIVED","CLINICAL STUDY SPONSOR"],["CDISCPILOT01","LB","01-701-1047","LBSEQ","      25","LBTMSHI","LAB RESULT/UPPER LIMIT OF NORMAL","0.4","DERIVED","CLINICAL STUDY SPONSOR"],["CDISCPILOT01","LB","01-701-1047","LBSEQ","      26","LBTMSHI","LAB RESULT/UPPER LIMIT OF NORMAL","1.0","DERIVED","CLINICAL STUDY SPONSOR"],["CDISCPILOT01","LB","01-701-1047","LBSEQ","      27","LBTMSHI","LAB RESULT/UPPER LIMIT OF NORMAL","0.6","DERIVED","CLINICAL STUDY SPONSOR"],["CDISCPILOT01","LB","01-701-1047","LBSEQ","      28","LBTMSHI","LAB RESULT/UPPER LIMIT OF NORMAL","0.8","DERIVED","CLINICAL STUDY SPONSOR"],["CDISCPILOT01","LB","01-701-1047","LBSEQ","      29","LBTMSHI","LAB RESULT/UPPER LIMIT OF NORMAL","0.6","DERIVED","CLINICAL STUDY SPONSOR"],["CDISCPILOT01","LB","01-701-1047","LBSEQ","      30","LBTMSHI","LAB RESULT/UPPER LIMIT OF NORMAL","0.9","DERIVED","CLINICAL STUDY SPONSOR"],["CDISCPILOT01","LB","01-701-1047","LBSEQ","      31","LBTMSHI","LAB RESULT/UPPER LIMIT OF NORMAL","0.9","DERIVED","CLINICAL STUDY SPONSOR"],["CDISCPILOT01","LB","01-701-1047","LBSEQ","      32","LBTMSHI","LAB RESULT/UPPER LIMIT OF NORMAL","1.0","DERIVED","CLINICAL STUDY SPONSOR"],["CDISCPILOT01","LB","01-701-1047","LBSEQ","      33","LBTMSHI","LAB RESULT/UPPER LIMIT OF NORMAL","0.1","DERIVED","CLINICAL STUDY SPONSOR"],["CDISCPILOT01","LB","01-701-1047","LBSEQ","      34","LBTMSHI","LAB RESULT/UPPER LIMIT OF NORMAL","0.5","DERIVED","CLINICAL STUDY SPONSOR"],["CDISCPILOT01","LB","01-701-1047","LBSEQ","      36","LBTMSHI","LAB RESULT/UPPER LIMIT OF NORMAL","0.7","DERIVED","CLINICAL STUDY SPONSOR"],["CDISCPILOT01","LB","01-701-1047","LBSEQ","      37","LBTMSHI","LAB RESULT/UPPER LIMIT OF NORMAL","0.7","DERIVED","CLINICAL STUDY SPONSOR"],["CDISCPILOT01","LB","01-701-1047","LBSEQ","      38","LBTMSHI","LAB RESULT/UPPER LIMIT OF NORMAL","0.8","DERIVED","CLINICAL STUDY SPONSOR"],["CDISCPILOT01","LB","01-701-1047","LBSEQ","      39","LBTMSHI","LAB RESULT/UPPER LIMIT OF NORMAL","0.6","DERIVED","CLINICAL STUDY SPONSOR"],["CDISCPILOT01","LB","01-701-1047","LBSEQ","      40","LBTMSHI","LAB RESULT/UPPER LIMIT OF NORMAL","0.5","DERIVED","CLINICAL STUDY SPONSOR"],["CDISCPILOT01","LB","01-701-1047","LBSEQ","      41","LBTMSHI","LAB RESULT/UPPER LIMIT OF NORMAL","0.6","DERIVED","CLINICAL STUDY SPONSOR"],["CDISCPILOT01","LB","01-701-1047","LBSEQ","      42","LBTMSHI","LAB RESULT/UPPER LIMIT OF NORMAL","0.3","DERIVED","CLINICAL STUDY SPONSOR"],["CDISCPILOT01","LB","01-701-1047","LBSEQ","      43","LBTMSHI","LAB RESULT/UPPER LIMIT OF NORMAL","0.4","DERIVED","CLINICAL STUDY SPONSOR"],["CDISCPILOT01","LB","01-701-1047","LBSEQ","      44","LBTMSHI","LAB RESULT/UPPER LIMIT OF NORMAL","0.7","DERIVED","CLINICAL STUDY SPONSOR"],["CDISCPILOT01","LB","01-701-1047","LBSEQ","      45","LBTMSHI","LAB RESULT/UPPER LIMIT OF NORMAL","0.9","DERIVED","CLINICAL STUDY SPONSOR"],["CDISCPILOT01","LB","01-701-1047","LBSEQ","      46","LBTMSHI","LAB RESULT/UPPER LIMIT OF NORMAL","0.7","DERIVED","CLINICAL STUDY SPONSOR"],["CDISCPILOT01","LB","01-701-1047","LBSEQ","      47","LBTMSHI","LAB RESULT/UPPER LIMIT OF NORMAL","0.5","DERIVED","CLINICAL STUDY SPONSOR"],["CDISCPILOT01","LB","01-701-1047","LBSEQ","      48","LBTMSHI","LAB RESULT/UPPER LIMIT OF NORMAL","1.0","DERIVED","CLINICAL STUDY SPONSOR"],["CDISCPILOT01","LB","01-701-1047","LBSEQ","      50","LBTMSHI","LAB RESULT/UPPER LIMIT OF NORMAL","0.7","DERIVED","CLINICAL STUDY SPONSOR"],["CDISCPILOT01","LB","01-701-1047","LBSEQ","      51","LBTMSHI","LAB RESULT/UPPER LIMIT OF NORMAL","0.3","DERIVED","CLINICAL STUDY SPONSOR"],["CDISCPILOT01","LB","01-701-1047","LBSEQ","      52","LBTMSHI","LAB RESULT/UPPER LIMIT OF NORMAL","0.2","DERIVED","CLINICAL STUDY SPONSOR"],["CDISCPILOT01","LB","01-701-1047","LBSEQ","      53","LBTMSHI","LAB RESULT/UPPER LIMIT OF NORMAL","0.4","DERIVED","CLINICAL STUDY SPONSOR"],["CDISCPILOT01","LB","01-701-1047","LBSEQ","      54","LBTMSHI","LAB RESULT/UPPER LIMIT OF NORMAL","0.9","DERIVED","CLINICAL STUDY SPONSOR"],["CDISCPILOT01","LB","01-701-1047","LBSEQ","      55","LBTMSHI","LAB RESULT/UPPER LIMIT OF NORMAL","0.9","DERIVED","CLINICAL STUDY SPONSOR"],["CDISCPILOT01","LB","01-701-1047","LBSEQ","      56","LBTMSHI","LAB RESULT/UPPER LIMIT OF NORMAL","0.7","DERIVED","CLINICAL STUDY SPONSOR"],["CDISCPILOT01","LB","01-701-1047","LBSEQ","      58","LBTMSHI","LAB RESULT/UPPER LIMIT OF NORMAL","0.7","DERIVED","CLINICAL STUDY SPONSOR"],["CDISCPILOT01","LB","01-701-1047","LBSEQ","      59","LBTMSHI","LAB RESULT/UPPER LIMIT OF NORMAL","0.9","DERIVED","CLINICAL STUDY SPONSOR"],["CDISCPILOT01","LB","01-701-1047","LBSEQ","      60","LBTMSHI","LAB RESULT/UPPER LIMIT OF NORMAL","0.9","DERIVED","CLINICAL STUDY SPONSOR"],["CDISCPILOT01","LB","01-701-1047","LBSEQ","      61","LBTMSHI","LAB RESULT/UPPER LIMIT OF NORMAL","1.0","DERIVED","CLINICAL STUDY SPONSOR"],["CDISCPILOT01","LB","01-701-1047","LBSEQ","      62","LBTMSHI","LAB RESULT/UPPER LIMIT OF NORMAL","0.4","DERIVED","CLINICAL STUDY SPONSOR"],["CDISCPILOT01","LB","01-701-1047","LBSEQ","      63","LBTMSHI","LAB RESULT/UPPER LIMIT OF NORMAL","1.0","DERIVED","CLINICAL STUDY SPONSOR"],["CDISCPILOT01","LB","01-701-1047","LBSEQ","      64","LBTMSHI","LAB RESULT/UPPER LIMIT OF NORMAL","0.6","DERIVED","CLINICAL STUDY SPONSOR"],["CDISCPILOT01","LB","01-701-1047","LBSEQ","      65","LBTMSHI","LAB RESULT/UPPER LIMIT OF NORMAL","0.6","DERIVED","CLINICAL STUDY SPONSOR"],["CDISCPILOT01","LB","01-701-1047","LBSEQ","      66","LBTMSHI","LAB RESULT/UPPER LIMIT OF NORMAL","0.6","DERIVED","CLINICAL STUDY SPONSOR"],["CDISCPILOT01","LB","01-701-1047","LBSEQ","      67","LBTMSHI","LAB RESULT/UPPER LIMIT OF NORMAL","0.8","DERIVED","CLINICAL STUDY SPONSOR"],["CDISCPILOT01","LB","01-701-1047","LBSEQ","      68","LBTMSHI","LAB RESULT/UPPER LIMIT OF NORMAL","0.8","DERIVED","CLINICAL STUDY SPONSOR"],["CDISCPILOT01","LB","01-701-1047","LBSEQ","      69","LBTMSHI","LAB RESULT/UPPER LIMIT OF NORMAL","1.0","DERIVED","CLINICAL STUDY SPONSOR"],["CDISCPILOT01","LB","01-701-1047","LBSEQ","      70","LBTMSHI","LAB RESULT/UPPER LIMIT OF NORMAL","0.6","DERIVED","CLINICAL STUDY SPONSOR"],["CDISCPILOT01","LB","01-701-1047","LBSEQ","      72","LBTMSHI","LAB RESULT/UPPER LIMIT OF NORMAL","0.5","DERIVED","CLINICAL STUDY SPONSOR"],["CDISCPILOT01","LB","01-701-1047","LBSEQ","      73","ENDPOINT","ENDPOINT VALUE FLAG","Y","DERIVED","CLINICAL STUDY SPONSOR"],["CDISCPILOT01","LB","01-701-1047","LBSEQ","      73","LBTMSHI","LAB RESULT/UPPER LIMIT OF NORMAL","0.8","DERIVED","CLINICAL STUDY SPONSOR"],["CDISCPILOT01","LB","01-701-1047","LBSEQ","      74","ENDPOINT","ENDPOINT VALUE FLAG","Y","DERIVED","CLINICAL STUDY SPONSOR"],["CDISCPILOT01","LB","01-701-1047","LBSEQ","      74","LBTMSHI","LAB RESULT/UPPER LIMIT OF NORMAL","0.6","DERIVED","CLINICAL STUDY SPONSOR"],["CDISCPILOT01","LB","01-701-1047","LBSEQ","      75","ENDPOINT","ENDPOINT VALUE FLAG","Y","DERIVED","CLINICAL STUDY SPONSOR"],["CDISCPILOT01","LB","01-701-1047","LBSEQ","      75","LBTMSHI","LAB RESULT/UPPER LIMIT OF NORMAL","0.6","DERIVED","CLINICAL STUDY SPONSOR"],["CDISCPILOT01","LB","01-701-1047","LBSEQ","      76","ENDPOINT","ENDPOINT VALUE FLAG","Y","DERIVED","CLINICAL STUDY SPONSOR"],["CDISCPILOT01","LB","01-701-1047","LBSEQ","      76","LBTMSHI","LAB RESULT/UPPER LIMIT OF NORMAL","0.7","DERIVED","CLINICAL STUDY SPONSOR"],["CDISCPILOT01","LB","01-701-1047","LBSEQ","      77","ENDPOINT","ENDPOINT VALUE FLAG","Y","DERIVED","CLINICAL STUDY SPONSOR"],["CDISCPILOT01","LB","01-701-1047","LBSEQ","      77","LBTMSHI","LAB RESULT/UPPER LIMIT OF NORMAL","0.2","DERIVED","CLINICAL STUDY SPONSOR"],["CDISCPILOT01","LB","01-701-1047","LBSEQ","      78","ENDPOINT","ENDPOINT VALUE FLAG","Y","DERIVED","CLINICAL STUDY SPONSOR"],["CDISCPILOT01","LB","01-701-1047","LBSEQ","      78","LBTMSHI","LAB RESULT/UPPER LIMIT OF NORMAL","0.3","DERIVED","CLINICAL STUDY SPONSOR"],["CDISCPILOT01","LB","01-701-1047","LBSEQ","      79","ENDPOINT","ENDPOINT VALUE FLAG","Y","DERIVED","CLINICAL STUDY SPONSOR"],["CDISCPILOT01","LB","01-701-1047","LBSEQ","      79","LBTMSHI","LAB RESULT/UPPER LIMIT OF NORMAL","0.8","DERIVED","CLINICAL STUDY SPONSOR"],["CDISCPILOT01","LB","01-701-1047","LBSEQ","      80","ENDPOINT","ENDPOINT VALUE FLAG","Y","DERIVED","CLINICAL STUDY SPONSOR"],["CDISCPILOT01","LB","01-701-1047","LBSEQ","      80","LBTMSHI","LAB RESULT/UPPER LIMIT OF NORMAL","0.8","DERIVED","CLINICAL STUDY SPONSOR"],["CDISCPILOT01","LB","01-701-1047","LBSEQ","      81","ENDPOINT","ENDPOINT VALUE FLAG","Y","DERIVED","CLINICAL STUDY SPONSOR"],["CDISCPILOT01","LB","01-701-1047","LBSEQ","      81","LBTMSHI","LAB RESULT/UPPER LIMIT OF NORMAL","0.6","DERIVED","CLINICAL STUDY SPONSOR"],["CDISCPILOT01","LB","01-701-1047","LBSEQ","      82","ENDPOINT","ENDPOINT VALUE FLAG","Y","DERIVED","CLINICAL STUDY SPONSOR"],["CDISCPILOT01","LB","01-701-1047","LBSEQ","      82","LBTMSHI","LAB RESULT/UPPER LIMIT OF NORMAL","0.5","DERIVED","CLINICAL STUDY SPONSOR"],["CDISCPILOT01","LB","01-701-1047","LBSEQ","      83","ENDPOINT","ENDPOINT VALUE FLAG","Y","DERIVED","CLINICAL STUDY SPONSOR"],["CDISCPILOT01","LB","01-701-1047","LBSEQ","      83","LBTMSHI","LAB RESULT/UPPER LIMIT OF NORMAL","1.0","DERIVED","CLINICAL STUDY SPONSOR"],["CDISCPILOT01","LB","01-701-1047","LBSEQ","      84","ENDPOINT","ENDPOINT VALUE FLAG","Y","DERIVED","CLINICAL STUDY SPONSOR"],["CDISCPILOT01","LB","01-701-1047","LBSEQ","      84","LBTMSHI","LAB RESULT/UPPER LIMIT OF NORMAL","0.6","DERIVED","CLINICAL STUDY SPONSOR"],["CDISCPILOT01","LB","01-701-1047","LBSEQ","      85","ENDPOINT","ENDPOINT VALUE FLAG","Y","DERIVED","CLINICAL STUDY SPONSOR"],["CDISCPILOT01","LB","01-701-1047","LBSEQ","      85","LBTMSHI","LAB RESULT/UPPER LIMIT OF NORMAL","0.4","DERIVED","CLINICAL STUDY SPONSOR"],["CDISCPILOT01","LB","01-701-1047","LBSEQ","      86","ENDPOINT","ENDPOINT VALUE FLAG","Y","DERIVED","CLINICAL STUDY SPONSOR"],["CDISCPILOT01","LB","01-701-1047","LBSEQ","      86","LBTMSHI","LAB RESULT/UPPER LIMIT OF NORMAL","0.2","DERIVED","CLINICAL STUDY SPONSOR"],["CDISCPILOT01","LB","01-701-1047","LBSEQ","      87","ENDPOINT","ENDPOINT VALUE FLAG","Y","DERIVED","CLINICAL STUDY SPONSOR"],["CDISCPILOT01","LB","01-701-1047","LBSEQ","      87","LBTMSHI","LAB RESULT/UPPER LIMIT OF NORMAL","0.4","DERIVED","CLINICAL STUDY SPONSOR"],["CDISCPILOT01","LB","01-701-1047","LBSEQ","      88","ENDPOINT","ENDPOINT VALUE FLAG","Y","DERIVED","CLINICAL STUDY SPONSOR"],["CDISCPILOT01","LB","01-701-1047","LBSEQ","      88","LBTMSHI","LAB RESULT/UPPER LIMIT OF NORMAL","0.8","DERIVED","CLINICAL STUDY SPONSOR"],["CDISCPILOT01","LB","01-701-1047","LBSEQ","      89","ENDPOINT","ENDPOINT VALUE FLAG","Y","DERIVED","CLINICAL STUDY SPONSOR"],["CDISCPILOT01","LB","01-701-1047","LBSEQ","      89","LBTMSHI","LAB RESULT/UPPER LIMIT OF NORMAL","0.9","DERIVED","CLINICAL STUDY SPONSOR"],["CDISCPILOT01","LB","01-701-1047","LBSEQ","      90","ENDPOINT","ENDPOINT VALUE FLAG","Y","DERIVED","CLINICAL STUDY SPONSOR"],["CDISCPILOT01","LB","01-701-1047","LBSEQ","      90","LBTMSHI","LAB RESULT/UPPER LIMIT OF NORMAL","0.7","DERIVED","CLINICAL STUDY SPONSOR"],["CDISCPILOT01","LB","01-701-1047","LBSEQ","      91","ENDPOINT","ENDPOINT VALUE FLAG","Y","DERIVED","CLINICAL STUDY SPONSOR"],["CDISCPILOT01","LB","01-701-1047","LBSEQ","      91","LBTMSHI","LAB RESULT/UPPER LIMIT OF NORMAL","0.7","DERIVED","CLINICAL STUDY SPONSOR"],["CDISCPILOT01","LB","01-701-1047","LBSEQ","      92","ENDPOINT","ENDPOINT VALUE FLAG","Y","DERIVED","CLINICAL STUDY SPONSOR"],["CDISCPILOT01","LB","01-701-1047","LBSEQ","      92","LBTMSHI","LAB RESULT/UPPER LIMIT OF NORMAL","0.9","DERIVED","CLINICAL STUDY SPONSOR"],["CDISCPILOT01","LB","01-701-1047","LBSEQ","      93","ENDPOINT","ENDPOINT VALUE FLAG","Y","DERIVED","CLINICAL STUDY SPONSOR"],["CDISCPILOT01","LB","01-701-1047","LBSEQ","      93","LBTMSHI","LAB RESULT/UPPER LIMIT OF NORMAL","0.9","DERIVED","CLINICAL STUDY SPONSOR"],["CDISCPILOT01","LB","01-701-1047","LBSEQ","      94","ENDPOINT","ENDPOINT VALUE FLAG","Y","DERIVED","CLINICAL STUDY SPONSOR"],["CDISCPILOT01","LB","01-701-1047","LBSEQ","      94","LBTMSHI","LAB RESULT/UPPER LIMIT OF NORMAL","0.9","DERIVED","CLINICAL STUDY SPONSOR"],["CDISCPILOT01","LB","01-701-1047","LBSEQ","      95","ENDPOINT","ENDPOINT VALUE FLAG","Y","DERIVED","CLINICAL STUDY SPONSOR"],["CDISCPILOT01","LB","01-701-1047","LBSEQ","      95","LBTMSHI","LAB RESULT/UPPER LIMIT OF NORMAL","0.4","DERIVED","CLINICAL STUDY SPONSOR"],["CDISCPILOT01","LB","01-701-1047","LBSEQ","      96","ENDPOINT","ENDPOINT VALUE FLAG","Y","DERIVED","CLINICAL STUDY SPONSOR"],["CDISCPILOT01","LB","01-701-1047","LBSEQ","      96","LBTMSHI","LAB RESULT/UPPER LIMIT OF NORMAL","1.0","DERIVED","CLINICAL STUDY SPONSOR"],["CDISCPILOT01","LB","01-701-1047","LBSEQ","      97","ENDPOINT","ENDPOINT VALUE FLAG","Y","DERIVED","CLINICAL STUDY SPONSOR"],["CDISCPILOT01","LB","01-701-1047","LBSEQ","      97","LBTMSHI","LAB RESULT/UPPER LIMIT OF NORMAL","0.6","DERIVED","CLINICAL STUDY SPONSOR"],["CDISCPILOT01","LB","01-701-1047","LBSEQ","      98","ENDPOINT","ENDPOINT VALUE FLAG","Y","DERIVED","CLINICAL STUDY SPONSOR"],["CDISCPILOT01","LB","01-701-1047","LBSEQ","      98","LBTMSHI","LAB RESULT/UPPER LIMIT OF NORMAL","0.6","DERIVED","CLINICAL STUDY SPONSOR"],["CDISCPILOT01","LB","01-701-1047","LBSEQ","      99","ENDPOINT","ENDPOINT VALUE FLAG","Y","DERIVED","CLINICAL STUDY SPONSOR"],["CDISCPILOT01","LB","01-701-1047","LBSEQ","      99","LBTMSHI","LAB RESULT/UPPER LIMIT OF NORMAL","0.8","DERIVED","CLINICAL STUDY SPONSOR"],["CDISCPILOT01","LB","01-701-1047","LBSEQ","     100","ENDPOINT","ENDPOINT VALUE FLAG","Y","DERIVED","CLINICAL STUDY SPONSOR"],["CDISCPILOT01","LB","01-701-1047","LBSEQ","     100","LBTMSHI","LAB RESULT/UPPER LIMIT OF NORMAL","0.8","DERIVED","CLINICAL STUDY SPONSOR"],["CDISCPILOT01","LB","01-701-1047","LBSEQ","     101","ENDPOINT","ENDPOINT VALUE FLAG","Y","DERIVED","CLINICAL STUDY SPONSOR"],["CDISCPILOT01","LB","01-701-1047","LBSEQ","     101","LBTMSHI","LAB RESULT/UPPER LIMIT OF NORMAL","0.6","DERIVED","CLINICAL STUDY SPONSOR"],["CDISCPILOT01","LB","01-701-1047","LBSEQ","     102","ENDPOINT","ENDPOINT VALUE FLAG","Y","DERIVED","CLINICAL STUDY SPONSOR"],["CDISCPILOT01","LB","01-701-1047","LBSEQ","     102","LBTMSHI","LAB RESULT/UPPER LIMIT OF NORMAL","0.5","DERIVED","CLINICAL STUDY SPONSOR"],["CDISCPILOT01","LB","01-701-1047","LBSEQ","     103","LBTMSHI","LAB RESULT/UPPER LIMIT OF NORMAL","0.2","DERIVED","CLINICAL STUDY SPONSOR"],["CDISCPILOT01","LB","01-701-1047","LBSEQ","     105","LBTMSHI","LAB RESULT/UPPER LIMIT OF NORMAL","0.4","DERIVED","CLINICAL STUDY SPONSOR"],["CDISCPILOT01","LB","01-701-1047","LBSEQ","     106","LBTMSHI","LAB RESULT/UPPER LIMIT OF NORMAL","0.8","DERIVED","CLINICAL STUDY SPONSOR"],["CDISCPILOT01","LB","01-701-1047","LBSEQ","     107","LBTMSHI","LAB RESULT/UPPER LIMIT OF NORMAL","0.8","DERIVED","CLINICAL STUDY SPONSOR"],["CDISCPILOT01","LB","01-701-1047","LBSEQ","     109","LBTMSHI","LAB RESULT/UPPER LIMIT OF NORMAL","0.6","DERIVED","CLINICAL STUDY SPONSOR"],["CDISCPILOT01","LB","01-701-1047","LBSEQ","     110","LBTMSHI","LAB RESULT/UPPER LIMIT OF NORMAL","0.9","DERIVED","CLINICAL STUDY SPONSOR"],["CDISCPILOT01","LB","01-701-1047","LBSEQ","     111","LBTMSHI","LAB RESULT/UPPER LIMIT OF NORMAL","0.9","DERIVED","CLINICAL STUDY SPONSOR"],["CDISCPILOT01","LB","01-701-1047","LBSEQ","     112","LBTMSHI","LAB RESULT/UPPER LIMIT OF NORMAL","1.0","DERIVED","CLINICAL STUDY SPONSOR"],["CDISCPILOT01","LB","01-701-1047","LBSEQ","     113","LBTMSHI","LAB RESULT/UPPER LIMIT OF NORMAL","0.5","DERIVED","CLINICAL STUDY SPONSOR"],["CDISCPILOT01","LB","01-701-1047","LBSEQ","     114","LBTMSHI","LAB RESULT/UPPER LIMIT OF NORMAL","0.6","DERIVED","CLINICAL STUDY SPONSOR"],["CDISCPILOT01","LB","01-701-1047","LBSEQ","     115","LBTMSHI","LAB RESULT/UPPER LIMIT OF NORMAL","0.5","DERIVED","CLINICAL STUDY SPONSOR"],["CDISCPILOT01","LB","01-701-1047","LBSEQ","     116","LBTMSHI","LAB RESULT/UPPER LIMIT OF NORMAL","0.8","DERIVED","CLINICAL STUDY SPONSOR"],["CDISCPILOT01","LB","01-701-1047","LBSEQ","     117","LBTMSHI","LAB RESULT/UPPER LIMIT OF NORMAL","1.0","DERIVED","CLINICAL STUDY SPONSOR"],["CDISCPILOT01","LB","01-701-1047","LBSEQ","     119","LBTMSHI","LAB RESULT/UPPER LIMIT OF NORMAL",